#time,accel_x,accel_y,accel_z
28805.051655,2072.576638,6217.729913,-75383.797003
28805.054224,1924.535449,6217.729913,-75230.577904
28805.056793,1924.535449,6661.853478,-75077.358804
28805.059362,1628.453072,6217.729913,-75230.577904
28805.061932,1628.453072,5921.647536,-75383.797003
28805.064501,1480.411884,7254.018232,-75690.235202
28805.067070,2220.617826,6217.729913,-75077.358804
28805.069639,7254.018232,7550.100608,-75077.358804
28805.072208,-1184.329507,4145.153275,-75230.577904
28805.074778,9030.512492,8142.265362,-73851.606007
28805.077347,-296.082377,4737.318029,-75996.673402
28805.079916,8290.306550,6809.894666,-74770.920605
28805.082485,-888.247130,6957.935855,-74464.482406
28805.085054,740.205942,16876.695478,-73238.729609
28805.087624,3701.029710,13767.830521,-76303.111601
28805.090193,6809.894666,6513.812290,-75690.235202
28805.092762,5329.482782,5329.482782,-73545.167808
28805.095331,14656.077652,15840.407159,-71859.757712
28805.097900,-740.205942,15840.407159,-76915.987999
28805.100469,-2664.741391,10362.883188,-77222.426198
28805.103039,-444.123565,7402.059420,-74311.263306
28805.105608,-3552.988522,-592.164754,-75077.358804
28805.108177,-2960.823768,-3997.112087,-76609.549800
28805.110746,4589.276840,-4441.235652,-76149.892501
28805.113315,-2960.823768,-740.205942,-75690.235202
28805.115885,-444.123565,4885.359217,-76456.330700
28805.118454,296.082377,7105.977043,-76762.768900
28805.121023,1480.411884,9326.594869,-74311.263306
28805.123592,2664.741391,9030.512492,-73698.386908
28805.126161,-296.082377,8290.306550,-75690.235202
28805.128731,1184.329507,3997.112087,-76149.892501
28805.131300,-1036.288319,2960.823768,-75843.454302
28805.133868,-4737.318029,-2516.700203,-77222.426198
28805.136437,3404.947333,8734.430116,-74311.263306
28805.139006,3701.029710,7105.977043,-75996.673402
28805.141574,1036.288319,3256.906145,-76456.330700
28805.144143,-2812.782580,5181.441594,-74158.044206
28805.146712,-2812.782580,4589.276840,-75077.358804
28805.149280,-1924.535449,4145.153275,-76609.549800
28805.151849,1924.535449,6365.771101,-74617.701505
28805.154418,-592.164754,4145.153275,-75383.797003
28805.156986,8586.388927,6661.853478,-74770.920605
28805.159555,-592.164754,4589.276840,-74464.482406
28805.162123,-296.082377,4145.153275,-74770.920605
28805.164692,-3701.029710,3552.988522,-74924.139704
28805.167261,-7846.182985,-2812.782580,-77069.207099
28805.169829,1924.535449,-2516.700203,-76915.987999
28805.172398,5477.523971,2072.576638,-76303.111601
28805.174967,4441.235652,4589.276840,-75996.673402
28805.177535,-9622.677246,2368.659014,-75077.358804
28805.180104,12139.377449,5921.647536,-75690.235202
28805.182673,-4293.194464,15100.201217,-74004.825107
28805.185241,-4441.235652,11843.295072,-75383.797003
28805.187810,-148.041188,3108.864956,-74617.701505
28805.190379,16284.530724,9770.718434,-73698.386908
28805.192947,-8882.471304,1628.453072,-75383.797003
28805.195516,11103.089130,1776.494261,-74924.139704
28805.198085,11103.089130,6957.935855,-74464.482406
28805.200653,2812.782580,12731.542202,-74464.482406
28805.203222,-2960.823768,13323.706956,-74617.701505
28805.205790,2368.659014,9918.759623,-75077.358804
28805.208359,2220.617826,9622.677246,-75383.797003
28805.210928,5329.482782,11695.253884,-74158.044206
28805.213496,13175.665768,10066.800811,-75383.797003
28805.216065,2664.741391,6809.894666,-75996.673402
28805.218634,1332.370696,4293.194464,-74770.920605
28805.221202,-2960.823768,4441.235652,-73851.606007
28805.223771,-1332.370696,7254.018232,-74311.263306
28805.226340,6365.771101,11103.089130,-76303.111601
28805.228908,9326.594869,13175.665768,-72625.853210
28805.231477,1924.535449,10955.047942,-72319.415011
28805.234046,6513.812290,6365.771101,-75230.577904
28805.236614,-4145.153275,4293.194464,-74311.263306
28805.239182,2664.741391,7402.059420,-74158.044206
28805.241751,2072.576638,6365.771101,-76609.549800
28805.244319,10955.047942,8142.265362,-75690.235202
28805.246888,6957.935855,5181.441594,-73238.729609
28805.249456,3256.906145,4885.359217,-74311.263306
28805.252024,2664.741391,9474.636058,-75996.673402
28805.254593,148.041188,14952.160028,-74617.701505
28805.257161,2368.659014,15840.407159,-75383.797003
28805.259729,4293.194464,9474.636058,-75077.358804
28805.262298,5181.441594,3849.070898,-74464.482406
28805.264866,5921.647536,8586.388927,-74158.044206
28805.267435,5181.441594,11843.295072,-74924.139704
28805.270003,-2516.700203,8142.265362,-75843.454302
28805.272571,-592.164754,1924.535449,-75230.577904
28805.275140,2516.700203,2368.659014,-73851.606007
28805.277708,13471.748144,12879.583391,-74770.920605
28805.280277,3849.070898,14952.160028,-75537.016103
28805.282845,7698.141797,11103.089130,-75690.235202
28805.285413,3108.864956,12287.418637,-73391.948708
28805.287982,-17320.819043,148.041188,-75537.016103
28805.290550,3997.112087,-3404.947333,-75690.235202
28805.293119,1480.411884,6217.729913,-75690.235202
28805.295687,12435.459826,12435.459826,-76609.549800
28805.298255,740.205942,3552.988522,-76915.987999
28805.300824,-2072.576638,0.000000,-74004.825107
28805.303392,-9178.553681,2072.576638,-74004.825107
28805.305960,-888.247130,7550.100608,-76303.111601
28805.308529,-4441.235652,7994.224174,-77835.302597
28805.311097,8882.471304,5477.523971,-75690.235202
28805.313666,888.247130,-1628.453072,-75077.358804
28805.316234,-1628.453072,-1036.288319,-74311.263306
28805.318802,-740.205942,4589.276840,-75537.016103
28805.321371,-3552.988522,10214.842000,-75537.016103
28805.323939,5329.482782,10510.924376,-74924.139704
28805.326508,1628.453072,6365.771101,-75690.235202
28805.329076,3701.029710,1924.535449,-76149.892501
28805.331644,-6957.935855,-148.041188,-75077.358804
28805.334213,2368.659014,6217.729913,-75077.358804
28805.336781,-4441.235652,10510.924376,-76303.111601
28805.339349,6217.729913,6217.729913,-76762.768900
28805.341916,-4293.194464,4145.153275,-74311.263306
28805.344484,3997.112087,5033.400406,-74311.263306
28805.347051,-5625.565159,1480.411884,-77988.521696
28805.349619,2960.823768,6809.894666,-76303.111601
28805.352186,-1184.329507,7402.059420,-74770.920605
28805.354754,4885.359217,7254.018232,-75230.577904
28805.357321,296.082377,1924.535449,-75383.797003
28805.359889,-5477.523971,1776.494261,-74464.482406
28805.362456,-4293.194464,-2072.576638,-75690.235202
28805.365024,-6217.729913,-2368.659014,-76609.549800
28805.367592,7402.059420,3108.864956,-75690.235202
28805.370159,4293.194464,5181.441594,-75230.577904
28805.372727,-4293.194464,3256.906145,-75843.454302
28805.375294,8438.347739,6217.729913,-74464.482406
28805.377862,-7105.977043,12139.377449,-74004.825107
28805.380429,3108.864956,10214.842000,-75690.235202
28805.382997,-4589.276840,2220.617826,-76915.987999
28805.385564,14952.160028,8882.471304,-74924.139704
28805.388132,-4145.153275,5033.400406,-75230.577904
28805.390699,8438.347739,5329.482782,-75383.797003
28805.393267,11103.089130,8882.471304,-74770.920605
28805.395834,3108.864956,14063.912898,-74158.044206
28805.398402,2516.700203,11843.295072,-75690.235202
28805.400969,-4885.359217,8438.347739,-74770.920605
28805.403537,1628.453072,6217.729913,-75690.235202
28805.406105,10955.047942,8734.430116,-74617.701505
28805.408672,6217.729913,7846.182985,-75996.673402
28805.411240,9326.594869,9918.759623,-75537.016103
28805.413807,-2516.700203,5329.482782,-74924.139704
28805.416375,-296.082377,7105.977043,-73698.386908
28805.418942,-2516.700203,7254.018232,-75996.673402
28805.421510,11103.089130,10362.883188,-76303.111601
28805.424077,8734.430116,11843.295072,-73545.167808
28805.426645,9918.759623,10066.800811,-73698.386908
28805.429212,-1332.370696,3701.029710,-75996.673402
28805.431780,1628.453072,4589.276840,-74770.920605
28805.434347,-3701.029710,9326.594869,-74004.825107
28805.436915,3849.070898,8734.430116,-76762.768900
28805.439483,11399.171507,8882.471304,-75996.673402
28805.442050,6513.812290,6809.894666,-74464.482406
28805.444617,7994.224174,10510.924376,-74617.701505
28805.447184,-5033.400406,11695.253884,-75843.454302
28805.449751,2960.823768,11547.212695,-75077.358804
28805.452318,444.123565,8734.430116,-74004.825107
28805.454885,15248.242405,10510.924376,-75383.797003
28805.457452,5033.400406,10510.924376,-75077.358804
28805.460019,7698.141797,10214.842000,-74311.263306
28805.462586,-6809.894666,3256.906145,-76303.111601
28805.465153,-3701.029710,1924.535449,-75383.797003
28805.467720,10214.842000,9178.553681,-73085.510509
28805.470287,13471.748144,17320.819043,-74158.044206
28805.472854,4885.359217,10066.800811,-75230.577904
28805.475421,9918.759623,9918.759623,-73545.167808
28805.477988,-10510.924376,6069.688724,-74464.482406
28805.480555,-14359.995275,-2516.700203,-76456.330700
28805.483122,1776.494261,0.000000,-76762.768900
28805.485689,7105.977043,7254.018232,-75690.235202
28805.488256,4885.359217,2220.617826,-77375.645298
28805.490823,2664.741391,444.123565,-75077.358804
28805.493390,-8586.388927,1480.411884,-74464.482406
28805.495957,-5477.523971,7846.182985,-74924.139704
28805.498524,-3256.906145,11547.212695,-75843.454302
28805.501091,3404.947333,6661.853478,-76456.330700
28805.503658,3404.947333,2072.576638,-75537.016103
28805.506225,1924.535449,-3108.864956,-74158.044206
28805.508792,-5033.400406,444.123565,-76609.549800
28805.511359,592.164754,9622.677246,-76609.549800
28805.513926,-592.164754,9030.512492,-74924.139704
28805.516493,3108.864956,7698.141797,-73698.386908
28805.519060,-1924.535449,3256.906145,-74158.044206
28805.521627,6365.771101,6365.771101,-73698.386908
28805.524194,-8142.265362,3256.906145,-74311.263306
28805.526761,6809.894666,7994.224174,-74770.920605
28805.529328,-6513.812290,7105.977043,-76609.549800
28805.531895,5477.523971,5181.441594,-75230.577904
28805.534462,-1776.494261,1036.288319,-75077.358804
28805.537029,2812.782580,3404.947333,-75843.454302
28805.539596,-888.247130,4293.194464,-77069.207099
28805.542163,-888.247130,8290.306550,-75230.577904
28805.544700,1628.453072,6513.812290,-74770.920605
28805.547238,-3701.029710,2516.700203,-76762.768900
28805.549775,-1184.329507,-592.164754,-76303.111601
28805.552312,-5921.647536,-3552.988522,-74924.139704
28805.554850,8586.388927,4737.318029,-75230.577904
28805.557387,-592.164754,3701.029710,-76149.892501
28805.559925,-1776.494261,5329.482782,-75537.016103
28805.562462,740.205942,1480.411884,-75230.577904
28805.564999,740.205942,14211.954086,-73085.510509
28805.567537,-1776.494261,10510.924376,-74924.139704
28805.570074,-5329.482782,740.205942,-76609.549800
28805.572611,16580.613101,10807.006753,-73545.167808
28805.575149,-10658.965565,3404.947333,-74311.263306
28805.577686,13915.871710,5033.400406,-75996.673402
28805.580223,5181.441594,7994.224174,-74617.701505
28805.582761,5477.523971,17616.901420,-72932.291410
28805.585298,8734.430116,15396.283594,-74311.263306
28805.587836,-6661.853478,9326.594869,-74617.701505
28805.590373,1332.370696,3849.070898,-75383.797003
28805.592910,8290.306550,6365.771101,-75077.358804
28805.595448,9178.553681,8882.471304,-76303.111601
28805.597985,8438.347739,9770.718434,-76303.111601
28805.600522,296.082377,7994.224174,-74924.139704
28805.603060,592.164754,6217.729913,-73545.167808
28805.605597,-5477.523971,7402.059420,-74770.920605
28805.608134,6661.853478,9326.594869,-77528.864398
28805.610672,7994.224174,12731.542202,-73851.606007
28805.613209,9326.594869,8438.347739,-74004.825107
28805.615746,296.082377,3997.112087,-76915.987999
28805.618284,3701.029710,7254.018232,-74158.044206
28805.620821,-1628.453072,4885.359217,-74464.482406
28805.623359,2812.782580,11695.253884,-73851.606007
28805.625896,5181.441594,8290.306550,-75843.454302
28805.628433,11251.130318,10807.006753,-75077.358804
28805.630971,5773.606348,7994.224174,-74770.920605
28805.633508,-888.247130,5329.482782,-75230.577904
28805.636045,-1036.288319,8438.347739,-75077.358804
28805.638583,6069.688724,13915.871710,-74617.701505
28805.641120,11991.336260,14804.118840,-75843.454302
28805.643657,6661.853478,11695.253884,-74617.701505
28805.646206,-1036.288319,2516.700203,-75230.577904
28805.648748,-3849.070898,-740.205942,-74617.701505
28805.651290,4885.359217,10658.965565,-74464.482406
28805.653833,9770.718434,17320.819043,-75383.797003
28805.656375,6069.688724,11399.171507,-75843.454302
28805.658917,9326.594869,10510.924376,-73545.167808
28805.661460,-5329.482782,4737.318029,-74158.044206
28805.664002,-15692.365970,-4441.235652,-75537.016103
28805.666544,148.041188,-296.082377,-76149.892501
28805.669086,6217.729913,6957.935855,-76762.768900
28805.671629,8882.471304,7402.059420,-77682.083497
28805.674171,0.000000,-1036.288319,-75690.235202
28805.676713,-6069.688724,444.123565,-74311.263306
28805.679255,-5181.441594,8142.265362,-74464.482406
28805.681798,-2072.576638,10658.965565,-76149.892501
28805.684340,1332.370696,8142.265362,-76762.768900
28805.686882,5477.523971,2664.741391,-75230.577904
28805.689424,-888.247130,-3701.029710,-75230.577904
28805.691967,-3997.112087,-1480.411884,-75996.673402
28805.694509,1332.370696,8438.347739,-75996.673402
28805.697051,-2072.576638,9030.512492,-75077.358804
28805.699594,8438.347739,6513.812290,-74311.263306
28805.702136,-4885.359217,1776.494261,-75077.358804
28805.704678,4441.235652,4885.359217,-74311.263306
28805.707220,-3256.906145,6365.771101,-74311.263306
28805.709763,-592.164754,7402.059420,-75230.577904
28805.712305,-888.247130,8142.265362,-76149.892501
28805.714847,1628.453072,3701.029710,-75996.673402
28805.717389,2072.576638,2960.823768,-74004.825107
28805.719932,-296.082377,3404.947333,-75843.454302
28805.722474,-2516.700203,5773.606348,-77375.645298
28805.725016,1184.329507,8882.471304,-75077.358804
28805.727558,-7105.977043,3256.906145,-75077.358804
28805.730101,-296.082377,-1776.494261,-76609.549800
28805.732643,-6217.729913,-6809.894666,-76609.549800
28805.735185,8438.347739,5033.400406,-74004.825107
28805.737728,-2368.659014,5329.482782,-76303.111601
28805.740270,-5033.400406,3701.029710,-77528.864398
28805.742812,5477.523971,4737.318029,-75077.358804
28805.745354,-3404.947333,10066.800811,-74464.482406
28805.747901,2812.782580,7105.977043,-76149.892501
28805.750448,-1184.329507,1628.453072,-76303.111601
28805.752995,13175.665768,12287.418637,-73698.386908
28805.755541,-9326.594869,5773.606348,-75537.016103
28805.758088,11991.336260,4145.153275,-75843.454302
28805.760635,6365.771101,9622.677246,-74311.263306
28805.763182,5477.523971,13619.789333,-73545.167808
28805.765728,5181.441594,14508.036463,-74924.139704
28805.768275,-4145.153275,10214.842000,-75383.797003
28805.770822,-592.164754,4589.276840,-75230.577904
28805.773368,7846.182985,5773.606348,-74158.044206
28805.775915,5921.647536,7550.100608,-76456.330700
28805.778462,10214.842000,10066.800811,-76149.892501
28805.781009,-296.082377,9326.594869,-74158.044206
28805.783555,1628.453072,7402.059420,-73391.948708
28805.786102,-5181.441594,6957.935855,-74770.920605
28805.788649,5329.482782,7105.977043,-75690.235202
28805.791196,4145.153275,7846.182985,-76303.111601
28805.793742,13175.665768,11399.171507,-74770.920605
28805.796289,1480.411884,4885.359217,-75690.235202
28805.798836,4441.235652,6513.812290,-73085.510509
28805.801383,-5181.441594,8586.388927,-72932.291410
28805.803929,4441.235652,8142.265362,-76609.549800
28805.806476,6217.729913,9178.553681,-77528.864398
28805.809023,9326.594869,11991.336260,-73698.386908
28805.811570,2072.576638,7550.100608,-75077.358804
28805.814116,4293.194464,7698.141797,-74924.139704
28805.816663,4589.276840,12287.418637,-73545.167808
28805.819210,8438.347739,16136.489536,-74158.044206
28805.821757,-1628.453072,9770.718434,-75843.454302
28805.824303,3256.906145,2664.741391,-75690.235202
28805.826850,-1184.329507,740.205942,-74158.044206
28805.829400,15396.283594,10362.883188,-74770.920605
28805.831951,2220.617826,15692.365970,-75690.235202
28805.834501,6809.894666,10955.047942,-75843.454302
28805.837052,2812.782580,11991.336260,-73238.729609
28805.839602,-12287.418637,2516.700203,-74464.482406
28805.842153,-2368.659014,-2368.659014,-75996.673402
28805.844703,-888.247130,1776.494261,-75843.454302
28805.847253,13175.665768,7994.224174,-75537.016103
28805.849804,-1776.494261,2664.741391,-76149.892501
28805.852354,-1776.494261,-1184.329507,-75230.577904
28805.854905,-6957.935855,2368.659014,-74464.482406
28805.857455,-1332.370696,7994.224174,-75230.577904
28805.860006,2072.576638,10807.006753,-76609.549800
28805.862556,1924.535449,4441.235652,-76456.330700
28805.865106,888.247130,1924.535449,-74617.701505
28805.867657,-4441.235652,-2516.700203,-74770.920605
28805.870207,-6365.771101,2072.576638,-76149.892501
28805.872758,740.205942,10955.047942,-75537.016103
28805.875308,4441.235652,6217.729913,-75690.235202
28805.877859,1184.329507,3849.070898,-75383.797003
28805.880409,2072.576638,3849.070898,-74770.920605
28805.882959,-1924.535449,5181.441594,-75230.577904
28805.885510,-740.205942,6513.812290,-75537.016103
28805.888060,-1480.411884,9030.512492,-75537.016103
28805.890611,2516.700203,3256.906145,-77375.645298
28805.893161,2072.576638,3108.864956,-74770.920605
28805.895712,-1628.453072,3256.906145,-74004.825107
28805.898262,-1480.411884,3849.070898,-76456.330700
28805.900812,-4145.153275,6661.853478,-76303.111601
28805.903363,-4589.276840,3849.070898,-75383.797003
28805.905913,-4145.153275,-1776.494261,-76609.549800
28805.908464,5181.441594,-2812.782580,-76149.892501
28805.911014,-148.041188,2072.576638,-74311.263306
28805.913565,-3849.070898,5181.441594,-75537.016103
28805.916115,-1480.411884,1776.494261,-77375.645298
28805.918665,3552.988522,13027.624579,-74004.825107
28805.921216,-592.164754,9622.677246,-74464.482406
28805.923766,148.041188,3256.906145,-76149.892501
28805.926317,8142.265362,2220.617826,-75843.454302
28805.928867,6513.812290,9770.718434,-74617.701505
28805.931420,4589.276840,6217.729913,-76456.330700
28805.933974,7994.224174,6809.894666,-75843.454302
28805.936527,8142.265362,12139.377449,-73698.386908
28805.939080,9474.636058,14063.912898,-73698.386908
28805.941633,-6069.688724,11547.212695,-75383.797003
28805.944187,-592.164754,7550.100608,-75383.797003
28805.946740,2220.617826,5181.441594,-74770.920605
28805.949293,11547.212695,7105.977043,-74158.044206
28805.951846,5477.523971,8438.347739,-75843.454302
28805.954400,8438.347739,11103.089130,-74311.263306
28805.956953,1628.453072,7846.182985,-74004.825107
28805.959506,444.123565,7846.182985,-73391.948708
28805.962059,-1628.453072,6809.894666,-75537.016103
28805.964613,6957.935855,7402.059420,-74770.920605
28805.967166,7698.141797,9178.553681,-75077.358804
28805.969719,8438.347739,6661.853478,-74924.139704
28805.972272,2368.659014,4293.194464,-74770.920605
28805.974826,-1776.494261,8586.388927,-72779.072310
28805.977379,-2960.823768,6513.812290,-75996.673402
28805.979932,7698.141797,10510.924376,-76303.111601
28805.982485,7550.100608,12287.418637,-74311.263306
28805.985039,8290.306550,9178.553681,-74617.701505
28805.987592,5921.647536,9178.553681,-74924.139704
28805.990145,1924.535449,12139.377449,-74770.920605
28805.992698,2072.576638,14656.077652,-74770.920605
28805.995252,-2664.741391,5477.523971,-75690.235202
28805.997805,2220.617826,2960.823768,-75996.673402
28806.000358,13619.789333,4441.235652,-75383.797003
28806.002911,13915.871710,13471.748144,-74158.044206
28806.005465,-296.082377,10362.883188,-76915.987999
28806.008018,3404.947333,8290.306550,-75537.016103
28806.010571,-2368.659014,11399.171507,-73085.510509
28806.013124,-13175.665768,-1036.288319,-76149.892501
28806.015678,1036.288319,1480.411884,-76915.987999
28806.018231,9030.512492,2368.659014,-75383.797003
28806.020784,6365.771101,5773.606348,-76303.111601
28806.023337,-4589.276840,-1628.453072,-75537.016103
28806.025891,-8290.306550,1184.329507,-74464.482406
28806.028444,-4441.235652,6365.771101,-75077.358804
28806.030997,1628.453072,9326.594869,-76149.892501
28806.033553,6365.771101,9918.759623,-76609.549800
28806.036109,1776.494261,1924.535449,-75230.577904
28806.038665,-6809.894666,-1924.535449,-75077.358804
28806.041220,-2812.782580,-296.082377,-74464.482406
28806.043776,-6365.771101,5477.523971,-76303.111601
28806.046332,8290.306550,11251.130318,-76303.111601
28806.048888,5477.523971,3256.906145,-76762.768900
28806.051443,1184.329507,3256.906145,-74464.482406
28806.053999,-1924.535449,3701.029710,-75230.577904
28806.056555,-5773.606348,5477.523971,-76149.892501
28806.059111,2072.576638,9474.636058,-74617.701505
28806.061667,-1036.288319,6365.771101,-74770.920605
28806.064222,3108.864956,5033.400406,-74924.139704
28806.066778,592.164754,740.205942,-73851.606007
28806.069334,-4589.276840,2960.823768,-75537.016103
28806.071890,-5033.400406,3256.906145,-76456.330700
28806.074445,-4589.276840,3997.112087,-76149.892501
28806.077001,3849.070898,-1480.411884,-75537.016103
28806.079557,7698.141797,1924.535449,-75230.577904
28806.082113,148.041188,2516.700203,-75996.673402
28806.084669,-8438.347739,2516.700203,-76762.768900
28806.087224,5181.441594,4885.359217,-75230.577904
28806.089780,-3997.112087,11399.171507,-75537.016103
28806.092336,4145.153275,9178.553681,-75690.235202
28806.094892,-2960.823768,0.000000,-75996.673402
28806.097448,14063.912898,10955.047942,-73545.167808
28806.100003,-9178.553681,6661.853478,-74924.139704
28806.102559,12731.542202,7698.141797,-74924.139704
28806.105115,3701.029710,10807.006753,-73698.386908
28806.107671,6365.771101,12879.583391,-73698.386908
28806.110226,7994.224174,13471.748144,-75230.577904
28806.112782,-3552.988522,8734.430116,-75383.797003
28806.115338,-2368.659014,6957.935855,-75230.577904
28806.117894,6217.729913,6957.935855,-74004.825107
28806.120450,8734.430116,8438.347739,-75690.235202
28806.123005,9770.718434,10510.924376,-75996.673402
28806.125561,4589.276840,10658.965565,-73698.386908
28806.128117,2812.782580,8438.347739,-73238.729609
28806.130673,-2812.782580,8438.347739,-74004.825107
28806.133228,3552.988522,7105.977043,-75690.235202
28806.135786,3701.029710,5625.565159,-74617.701505
28806.138343,7550.100608,9622.677246,-74924.139704
28806.140901,4737.318029,5181.441594,-77528.864398
28806.143458,3701.029710,5477.523971,-74617.701505
28806.146015,1480.411884,7402.059420,-72319.415011
28806.148573,2368.659014,9178.553681,-75383.797003
28806.151130,6069.688724,10362.883188,-76456.330700
28806.153688,10214.842000,13471.748144,-73851.606007
28806.156245,7402.059420,10807.006753,-73851.606007
28806.158802,3256.906145,11843.295072,-75230.577904
28806.161360,-5329.482782,9178.553681,-75537.016103
28806.163917,-888.247130,6513.812290,-74464.482406
28806.166475,3256.906145,3997.112087,-74770.920605
28806.169032,20133.601622,11103.089130,-75537.016103
28806.171590,5625.565159,14063.912898,-74617.701505
28806.174147,4441.235652,9326.594869,-74924.139704
28806.176704,888.247130,10510.924376,-72319.415011
28806.179262,-14359.995275,3256.906145,-74924.139704
28806.181819,2960.823768,-444.123565,-76149.892501
28806.184377,740.205942,3256.906145,-75996.673402
28806.186934,17320.819043,8586.388927,-75230.577904
28806.189491,-6069.688724,-444.123565,-76609.549800
28806.192049,1776.494261,-1480.411884,-75077.358804
28806.194606,-14804.118840,1776.494261,-74464.482406
28806.197164,-740.205942,9030.512492,-74770.920605
28806.199721,888.247130,10807.006753,-75690.235202
28806.202278,5033.400406,5477.523971,-75537.016103
28806.204836,2664.741391,1628.453072,-74924.139704
28806.207393,-9770.718434,-2072.576638,-74004.825107
28806.209951,-3701.029710,296.082377,-76609.549800
28806.212508,-5329.482782,10510.924376,-75383.797003
28806.215065,8142.265362,8586.388927,-75996.673402
28806.217623,3997.112087,2516.700203,-74924.139704
28806.220180,1332.370696,3404.947333,-75077.358804
28806.222738,-444.123565,4737.318029,-75690.235202
28806.225295,-5329.482782,3997.112087,-75843.454302
28806.227852,888.247130,9178.553681,-74004.825107
28806.230410,-148.041188,3256.906145,-76149.892501
28806.232967,1776.494261,2220.617826,-74617.701505
28806.235525,-296.082377,2664.741391,-73698.386908
28806.238084,-7105.977043,1924.535449,-76149.892501
28806.240643,-5773.606348,1924.535449,-76456.330700
28806.243202,1480.411884,2220.617826,-74464.482406
28806.245761,5921.647536,2516.700203,-75690.235202
28806.248321,-296.082377,1628.453072,-76762.768900
28806.250880,-7402.059420,740.205942,-75843.454302
28806.253439,9030.512492,8290.306550,-74311.263306
28806.255998,-6809.894666,9622.677246,-75077.358804
28806.258557,4589.276840,7105.977043,-76762.768900
28806.261116,-2368.659014,-148.041188,-76303.111601
28806.263676,9474.636058,11547.212695,-73085.510509
28806.266235,-7402.059420,4737.318029,-75843.454302
28806.268794,14359.995275,6217.729913,-76609.549800
28806.271353,5921.647536,12139.377449,-73698.386908
28806.273912,8290.306550,11695.253884,-74924.139704
28806.276472,-888.247130,10658.965565,-75690.235202
28806.279031,-5329.482782,5625.565159,-76149.892501
28806.281590,5477.523971,5477.523971,-75077.358804
28806.284149,6069.688724,7254.018232,-74004.825107
28806.286708,10807.006753,9178.553681,-75383.797003
28806.289268,7994.224174,10214.842000,-75383.797003
28806.291827,5477.523971,10066.800811,-73238.729609
28806.294386,296.082377,7846.182985,-75537.016103
28806.296945,-1628.453072,5477.523971,-77988.521696
28806.299504,8142.265362,8586.388927,-75537.016103
28806.302064,10658.965565,9622.677246,-74311.263306
28806.304623,2072.576638,5921.647536,-76456.330700
28806.307182,9030.512492,5625.565159,-76456.330700
28806.309741,-3997.112087,4589.276840,-73391.948708
28806.312300,2812.782580,11251.130318,-72472.634111
28806.314860,9770.718434,13027.624579,-75690.235202
28806.317419,4885.359217,10807.006753,-75690.235202
28806.319978,13619.789333,15100.201217,-73391.948708
28806.322537,-1036.288319,12139.377449,-74770.920605
28806.325096,-2220.617826,5921.647536,-76609.549800
28806.327656,-5625.565159,4885.359217,-74617.701505
28806.330215,7254.018232,6217.729913,-73698.386908
28806.332774,19097.313304,11547.212695,-75230.577904
28806.335333,592.164754,11695.253884,-75690.235202
28806.337892,6365.771101,7994.224174,-74924.139704
28806.340452,-2960.823768,11399.171507,-72779.072310
28806.343013,-21169.889941,888.247130,-76456.330700
28806.345573,6069.688724,0.000000,-75843.454302
28806.348133,1776.494261,2960.823768,-75996.673402
28806.350693,16876.695478,8142.265362,-74617.701505
28806.353253,-6069.688724,-1480.411884,-77222.426198
28806.355813,-1184.329507,-1184.329507,-75230.577904
28806.358373,-9474.636058,3849.070898,-74004.825107
28806.360933,-1480.411884,9622.677246,-75537.016103
28806.363493,6365.771101,10214.842000,-76456.330700
28806.366054,3701.029710,4293.194464,-75690.235202
28806.368614,2960.823768,740.205942,-74311.263306
28806.371174,-11399.171507,-2072.576638,-74617.701505
28806.373734,-6661.853478,1776.494261,-76762.768900
28806.376294,-2812.782580,10807.006753,-73851.606007
28806.378854,2812.782580,4885.359217,-75690.235202
28806.381414,8142.265362,5477.523971,-73238.729609
28806.383974,296.082377,5181.441594,-74158.044206
28806.386534,-8290.306550,4293.194464,-75690.235202
28806.389095,-2960.823768,6957.935855,-74924.139704
28806.391655,-1332.370696,5921.647536,-74770.920605
28806.394215,3849.070898,4737.318029,-75996.673402
28806.396775,-1480.411884,444.123565,-75230.577904
28806.399335,-3997.112087,1332.370696,-75383.797003
28806.401895,-5773.606348,-296.082377,-76609.549800
28806.404455,1332.370696,2220.617826,-74924.139704
28806.407015,0.000000,3404.947333,-74617.701505
28806.409576,1480.411884,4145.153275,-75843.454302
28806.412136,-6809.894666,-1036.288319,-78294.959896
28806.414696,10214.842000,8438.347739,-74311.263306
28806.417256,-5625.565159,10214.842000,-74004.825107
28806.419816,-1628.453072,4885.359217,-76456.330700
28806.422376,8586.388927,2072.576638,-75996.673402
28806.424936,4441.235652,11251.130318,-72932.291410
28806.427496,-3849.070898,5625.565159,-75843.454302
28806.430056,15988.448347,6957.935855,-76303.111601
28806.432617,6365.771101,12731.542202,-74004.825107
28806.435177,6069.688724,14211.954086,-73391.948708
28806.437737,888.247130,10658.965565,-75077.358804
28806.440297,-3849.070898,4885.359217,-75230.577904
28806.442858,2664.741391,4145.153275,-74924.139704
28806.445419,8142.265362,8290.306550,-74004.825107
28806.447980,10510.924376,9622.677246,-75537.016103
28806.450541,7254.018232,10658.965565,-75077.358804
28806.453102,2220.617826,9918.759623,-73085.510509
28806.455663,592.164754,7846.182985,-74770.920605
28806.458224,-2960.823768,4145.153275,-77988.521696
28806.460785,5773.606348,8290.306550,-74617.701505
28806.463346,3701.029710,8734.430116,-75077.358804
28806.465906,10955.047942,9030.512492,-76456.330700
28806.468467,2812.782580,6513.812290,-75383.797003
28806.471028,-444.123565,7105.977043,-72779.072310
28806.473589,4737.318029,10955.047942,-74004.825107
28806.476150,3108.864956,12583.501014,-75996.673402
28806.478711,13767.830521,13471.748144,-75690.235202
28806.481272,4293.194464,13027.624579,-73391.948708
28806.483833,-740.205942,6069.688724,-76456.330700
28806.486394,-5181.441594,2516.700203,-74924.139704
28806.488955,2812.782580,5033.400406,-74158.044206
28806.491516,18061.024985,12731.542202,-74924.139704
28806.494077,8290.306550,16728.654289,-74924.139704
28806.496638,5033.400406,7105.977043,-76762.768900
28806.499199,3256.906145,9474.636058,-72012.976812
28806.501760,-20577.725188,3108.864956,-74924.139704
28806.504321,2516.700203,-1332.370696,-77375.645298
28806.506882,444.123565,3701.029710,-75537.016103
28806.509443,15248.242405,7402.059420,-74464.482406
28806.512004,-1036.288319,-740.205942,-77222.426198
28806.514565,-1628.453072,-2664.741391,-74770.920605
28806.517126,-11991.336260,1924.535449,-73851.606007
28806.519687,-4145.153275,9918.759623,-75077.358804
28806.522248,3849.070898,11695.253884,-76915.987999
28806.524809,7402.059420,6217.729913,-76303.111601
28806.527370,2368.659014,-1184.329507,-75230.577904
28806.529930,-6513.812290,-2220.617826,-74311.263306
28806.532491,-7698.141797,1480.411884,-75230.577904
28806.535052,-4589.276840,9326.594869,-75077.358804
28806.537613,1776.494261,7994.224174,-75996.673402
28806.540174,9474.636058,3849.070898,-74311.263306
28806.542735,2664.741391,6661.853478,-74004.825107
28806.545297,-5329.482782,5625.565159,-75996.673402
28806.547859,-3997.112087,7105.977043,-76149.892501
28806.550421,-1480.411884,5033.400406,-76149.892501
28806.552983,-296.082377,1924.535449,-77375.645298
28806.555544,1628.453072,592.164754,-75383.797003
28806.558106,-2960.823768,888.247130,-74770.920605
28806.560668,888.247130,444.123565,-77222.426198
28806.563230,-5773.606348,3256.906145,-74770.920605
28806.565792,4145.153275,5477.523971,-74311.263306
28806.568354,-11991.336260,-296.082377,-76762.768900
28806.570915,11103.089130,3256.906145,-75996.673402
28806.573477,-148.041188,8290.306550,-74617.701505
28806.576039,1184.329507,9178.553681,-74924.139704
28806.578601,-5181.441594,-592.164754,-76149.892501
28806.581163,13175.665768,11547.212695,-72932.291410
28806.583725,-9918.759623,8586.388927,-74924.139704
28806.586286,15396.283594,9178.553681,-75077.358804
28806.588848,7105.977043,11843.295072,-74158.044206
28806.591410,4737.318029,13767.830521,-74311.263306
28806.593972,10066.800811,13323.706956,-74158.044206
28806.596534,-9030.512492,6513.812290,-75383.797003
28806.599096,0.000000,4737.318029,-75843.454302
28806.601657,592.164754,4737.318029,-74924.139704
28806.604219,13471.748144,9770.718434,-75230.577904
28806.606781,11399.171507,11991.336260,-75383.797003
28806.609343,1480.411884,10510.924376,-73391.948708
28806.611905,2516.700203,8438.347739,-74004.825107
28806.614467,-5329.482782,3404.947333,-76915.987999
28806.617028,3849.070898,8734.430116,-75230.577904
28806.619590,4589.276840,10362.883188,-74617.701505
28806.622152,14952.160028,10066.800811,-75843.454302
28806.624714,3552.988522,6217.729913,-75996.673402
28806.627276,2368.659014,7105.977043,-72932.291410
28806.629838,444.123565,11103.089130,-73391.948708
28806.632399,6661.853478,13619.789333,-75230.577904
28806.634961,8142.265362,13619.789333,-76149.892501
28806.637523,11547.212695,15988.448347,-73391.948708
28806.640085,-3552.988522,3552.988522,-75230.577904
28806.642647,-1776.494261,888.247130,-75996.673402
28806.645208,2664.741391,4441.235652,-74464.482406
28806.647769,14804.118840,15692.365970,-74158.044206
28806.650331,5921.647536,13471.748144,-76915.987999
28806.652894,4145.153275,7105.977043,-75690.235202
28806.655457,1628.453072,9474.636058,-72625.853210
28806.658019,-19541.436869,-1628.453072,-75996.673402
28806.660582,3552.988522,-2072.576638,-76915.987999
28806.663145,-2220.617826,4145.153275,-75690.235202
28806.665707,16136.489536,9474.636058,-74924.139704
28806.668270,-2812.782580,-1924.535449,-76762.768900
28806.670833,-5181.441594,-1184.329507,-74924.139704
28806.673395,-9770.718434,2516.700203,-74004.825107
28806.675958,-1036.288319,10362.883188,-75383.797003
28806.678521,2220.617826,9918.759623,-77528.864398
28806.681083,8142.265362,6661.853478,-76149.892501
28806.683646,-148.041188,-1332.370696,-75230.577904
28806.686209,-10807.006753,-888.247130,-75690.235202
28806.688771,-4145.153275,2960.823768,-77682.083497
28806.691334,-1332.370696,12731.542202,-76762.768900
28806.693897,9770.718434,6365.771101,-76762.768900
28806.696459,4293.194464,6365.771101,-72779.072310
28806.699022,-2220.617826,2812.782580,-75537.016103
28806.701585,-2664.741391,5033.400406,-75230.577904
28806.704147,-5477.523971,4589.276840,-74770.920605
28806.706710,-1332.370696,3997.112087,-75230.577904
28806.709273,-2072.576638,148.041188,-75996.673402
28806.711835,1628.453072,-148.041188,-74004.825107
28806.714398,2812.782580,740.205942,-74924.139704
28806.716961,-3256.906145,3256.906145,-75843.454302
28806.719523,-1184.329507,5773.606348,-75383.797003
28806.722086,-10066.800811,2072.576638,-75383.797003
28806.724649,10066.800811,5477.523971,-75383.797003
28806.727211,-2368.659014,6809.894666,-75383.797003
28806.729774,4145.153275,5921.647536,-75843.454302
28806.732337,-1332.370696,-592.164754,-75690.235202
28806.734899,12435.459826,13027.624579,-73698.386908
28806.737462,-4737.318029,7994.224174,-76609.549800
28806.740025,13471.748144,8882.471304,-75537.016103
28806.742587,9622.677246,12287.418637,-73851.606007
28806.745150,8290.306550,12139.377449,-74311.263306
28806.747713,7402.059420,13175.665768,-74617.701505
28806.750275,-8290.306550,6069.688724,-74617.701505
28806.752838,1036.288319,5181.441594,-75537.016103
28806.755400,-740.205942,3849.070898,-75077.358804
28806.757963,13175.665768,9622.677246,-75537.016103
28806.760526,11695.253884,11547.212695,-74617.701505
28806.763088,-444.123565,12583.501014,-72625.853210
28806.765651,444.123565,10066.800811,-72932.291410
28806.768214,-592.164754,3404.947333,-75690.235202
28806.770776,2368.659014,8290.306550,-74464.482406
28806.773339,7402.059420,8882.471304,-76609.549800
28806.775901,11399.171507,8734.430116,-76915.987999
28806.778464,6957.935855,7254.018232,-74924.139704
28806.781027,-592.164754,7105.977043,-72932.291410
28806.783589,5773.606348,10658.965565,-74617.701505
28806.786152,740.205942,12731.542202,-76609.549800
28806.788715,11843.295072,17912.983796,-75077.358804
28806.791277,-3108.864956,8438.347739,-75230.577904
28806.793840,3404.947333,3849.070898,-75690.235202
28806.796402,1924.535449,1776.494261,-75383.797003
28806.798965,14952.160028,11399.171507,-74004.825107
28806.801528,2368.659014,14359.995275,-75383.797003
28806.804090,3404.947333,10510.924376,-75843.454302
28806.806653,5033.400406,11547.212695,-74004.825107
28806.809216,-16876.695478,1332.370696,-75230.577904
28806.811778,1480.411884,-3404.947333,-76609.549800
28806.814341,-1184.329507,1480.411884,-75690.235202
28806.816903,12287.418637,7402.059420,-74924.139704
28806.819466,-3404.947333,1480.411884,-77069.207099
28806.822029,-3701.029710,296.082377,-75537.016103
28806.824591,-8290.306550,1924.535449,-73698.386908
28806.827154,-296.082377,8586.388927,-74924.139704
28806.829717,740.205942,8586.388927,-76609.549800
28806.832279,9178.553681,7846.182985,-76149.892501
28806.834842,-2072.576638,-444.123565,-75843.454302
28806.837405,-7846.182985,-1036.288319,-74158.044206
28806.839967,-4885.359217,-888.247130,-77222.426198
28806.842530,-3997.112087,8142.265362,-76303.111601
28806.845092,9326.594869,7846.182985,-75843.454302
28806.847655,3701.029710,4885.359217,-73851.606007
28806.850218,-1480.411884,2516.700203,-75690.235202
28806.852780,-3108.864956,4885.359217,-74004.825107
28806.855343,-9178.553681,2368.659014,-75230.577904
28806.857906,-1332.370696,5477.523971,-74924.139704
28806.860469,-3997.112087,592.164754,-76303.111601
28806.863031,4145.153275,-1776.494261,-75843.454302
28806.865594,3849.070898,888.247130,-74924.139704
28806.868157,-1628.453072,740.205942,-76609.549800
28806.870719,-5477.523971,3997.112087,-76609.549800
28806.873282,-9622.677246,1776.494261,-75690.235202
28806.875845,9474.636058,11399.171507,-74464.482406
28806.878408,1628.453072,7550.100608,-75230.577904
28806.880970,-1480.411884,3256.906145,-76303.111601
28806.883533,18061.024985,7846.182985,-73545.167808
28806.886096,-11695.253884,9326.594869,-75077.358804
28806.888659,13027.624579,9474.636058,-76456.330700
28806.891221,-888.247130,8734.430116,-75690.235202
28806.893784,17912.983796,16136.489536,-72779.072310
28806.896347,5181.441594,11103.089130,-74311.263306
28806.898909,1924.535449,12731.542202,-75537.016103
28806.901472,-5625.565159,4885.359217,-75690.235202
28806.904035,-4293.194464,5773.606348,-74464.482406
28806.906598,12879.583391,5773.606348,-75230.577904
28806.909160,7105.977043,8734.430116,-76149.892501
28806.911723,12731.542202,11843.295072,-75537.016103
28806.914286,0.000000,11695.253884,-72779.072310
28806.916849,4145.153275,9178.553681,-73698.386908
28806.919411,-8734.430116,1480.411884,-76303.111601
28806.921974,5773.606348,12879.583391,-73085.510509
28806.924537,11991.336260,12583.501014,-75077.358804
28806.927099,6217.729913,7402.059420,-76456.330700
28806.929662,9030.512492,9178.553681,-73851.606007
28806.932225,-592.164754,6217.729913,-72932.291410
28806.934788,3552.988522,10658.965565,-74924.139704
28806.937350,2368.659014,14804.118840,-75537.016103
28806.939913,3552.988522,11251.130318,-76456.330700
28806.942476,4145.153275,7105.977043,-74924.139704
28806.945038,11399.171507,4441.235652,-74464.482406
28806.947601,11251.130318,10955.047942,-74158.044206
28806.950164,592.164754,12583.501014,-74464.482406
28806.952727,-888.247130,9178.553681,-75843.454302
28806.955290,7105.977043,12879.583391,-73698.386908
28806.957853,-16728.654289,1628.453072,-76303.111601
28806.960416,6661.853478,-2368.659014,-76303.111601
28806.962979,-2664.741391,148.041188,-74617.701505
28806.965543,10955.047942,6957.935855,-75690.235202
28806.968106,-5773.606348,1332.370696,-77835.302597
28806.970669,-4589.276840,148.041188,-75383.797003
28806.973232,-5921.647536,1332.370696,-74617.701505
28806.975795,740.205942,7846.182985,-74924.139704
28806.978359,3997.112087,6809.894666,-77069.207099
28806.980922,5033.400406,7550.100608,-75383.797003
28806.983485,-1184.329507,1776.494261,-75690.235202
28806.986048,-12287.418637,-444.123565,-73391.948708
28806.988611,-3552.988522,2812.782580,-75996.673402
28806.991174,1332.370696,11251.130318,-75383.797003
28806.993738,6957.935855,7846.182985,-75383.797003
28806.996301,3108.864956,3849.070898,-74311.263306
28806.998864,-3552.988522,2368.659014,-75230.577904
28807.001427,-3108.864956,4441.235652,-76456.330700
28807.003990,-9622.677246,3108.864956,-76609.549800
28807.006554,1480.411884,4145.153275,-75996.673402
28807.009117,296.082377,-1036.288319,-76609.549800
28807.011680,10807.006753,888.247130,-74158.044206
28807.014243,-5181.441594,-148.041188,-74924.139704
28807.016806,-1480.411884,3997.112087,-75996.673402
28807.019370,-11991.336260,888.247130,-76609.549800
28807.021933,3404.947333,7105.977043,-74617.701505
28807.024496,5477.523971,9474.636058,-75230.577904
28807.027059,-2220.617826,2812.782580,-75843.454302
28807.029622,10658.965565,-148.041188,-75077.358804
28807.032185,1332.370696,13471.748144,-72166.195912
28807.034749,-5625.565159,9030.512492,-76609.549800
28807.037312,10510.924376,8734.430116,-76762.768900
28807.039875,10214.842000,13767.830521,-74158.044206
28807.042438,12287.418637,13175.665768,-74311.263306
28807.045001,4589.276840,11399.171507,-74770.920605
28807.047564,-5181.441594,5329.482782,-75383.797003
28807.050127,0.000000,6957.935855,-73851.606007
28807.052690,-444.123565,3701.029710,-74924.139704
28807.055253,16728.654289,9474.636058,-75843.454302
28807.057816,3701.029710,10362.883188,-75077.358804
28807.060379,10955.047942,11251.130318,-74617.701505
28807.062942,592.164754,10955.047942,-73698.386908
28807.065505,-2812.782580,1480.411884,-75537.016103
28807.068068,1628.453072,10658.965565,-73085.510509
28807.070631,7994.224174,10362.883188,-75537.016103
28807.073195,11251.130318,10658.965565,-77222.426198
28807.075758,9770.718434,8142.265362,-74924.139704
28807.078321,3404.947333,9030.512492,-73085.510509
28807.080884,1184.329507,9474.636058,-73851.606007
28807.083447,-3701.029710,14508.036463,-74924.139704
28807.086010,4737.318029,10362.883188,-76149.892501
28807.088573,1776.494261,5181.441594,-74770.920605
28807.091136,19541.436869,10510.924376,-73698.386908
28807.093699,5033.400406,10658.965565,-74770.920605
28807.096262,1776.494261,9474.636058,-75077.358804
28807.098825,-2072.576638,9326.594869,-73698.386908
28807.101388,-2072.576638,13767.830521,-73698.386908
28807.103951,-1184.329507,-3849.070898,-77682.083497
28807.106514,444.123565,-1480.411884,-76149.892501
28807.109077,8290.306550,3404.947333,-74617.701505
28807.111640,1924.535449,5181.441594,-75996.673402
28807.114203,-2220.617826,2812.782580,-76456.330700
28807.116767,-13323.706956,2072.576638,-74617.701505
28807.119330,-1036.288319,3997.112087,-74924.139704
28807.121893,-1332.370696,5033.400406,-76149.892501
28807.124456,13323.706956,7402.059420,-76456.330700
28807.127019,-3404.947333,2664.741391,-75843.454302
28807.129582,-3256.906145,3552.988522,-74770.920605
28807.132145,-13027.624579,-888.247130,-76609.549800
28807.134708,1480.411884,7550.100608,-76609.549800
28807.137271,-2368.659014,9178.553681,-75077.358804
28807.139834,9918.759623,8586.388927,-75843.454302
28807.142397,1036.288319,4737.318029,-72932.291410
28807.144960,-7402.059420,1184.329507,-74617.701505
28807.147524,-5033.400406,3108.864956,-75996.673402
28807.150087,-6957.935855,3701.029710,-75690.235202
28807.152650,3256.906145,2812.782580,-76609.549800
28807.155213,5181.441594,1332.370696,-74770.920605
28807.157776,5329.482782,2072.576638,-74464.482406
28807.160339,-7105.977043,1628.453072,-75077.358804
28807.162902,-4885.359217,-148.041188,-76915.987999
28807.165466,-1036.288319,9622.677246,-74770.920605
28807.168029,5477.523971,11695.253884,-75383.797003
28807.170592,3404.947333,5033.400406,-77835.302597
28807.173155,2664.741391,-1628.453072,-76609.549800
28807.175718,11399.171507,12139.377449,-72472.634111
28807.178281,-12731.542202,7846.182985,-75383.797003
28807.180844,12879.583391,9770.718434,-77222.426198
28807.183408,11843.295072,14508.036463,-73698.386908
28807.185971,9622.677246,12435.459826,-74311.263306
28807.188534,5477.523971,11843.295072,-74311.263306
28807.191097,-5329.482782,4589.276840,-75230.577904
28807.193660,888.247130,5625.565159,-75077.358804
28807.196223,-3701.029710,5921.647536,-74158.044206
28807.198786,14508.036463,9622.677246,-75996.673402
28807.201350,8438.347739,9326.594869,-76915.987999
28807.203913,3701.029710,12139.377449,-72012.976812
28807.206476,3701.029710,9178.553681,-72779.072310
28807.209039,-444.123565,2664.741391,-75230.577904
28807.211602,0.000000,8142.265362,-75383.797003
28807.214165,8734.430116,9178.553681,-76303.111601
28807.216728,11991.336260,10807.006753,-77835.302597
28807.219292,7698.141797,9770.718434,-75230.577904
28807.221855,3849.070898,8734.430116,-73085.510509
28807.224418,148.041188,11843.295072,-73698.386908
28807.226981,-2516.700203,11399.171507,-75690.235202
28807.229544,3256.906145,10658.965565,-75383.797003
28807.232107,12287.418637,9474.636058,-74004.825107
28807.234670,17320.819043,11843.295072,-73851.606007
28807.237234,1332.370696,10510.924376,-75230.577904
28807.239797,-148.041188,5181.441594,-75230.577904
28807.242331,0.000000,11843.295072,-73085.510509
28807.244866,-16580.613101,2516.700203,-76456.330700
28807.247400,7698.141797,-1776.494261,-77375.645298
28807.249934,148.041188,1036.288319,-75996.673402
28807.252469,14508.036463,6365.771101,-74464.482406
28807.255003,-9178.553681,1036.288319,-77222.426198
28807.257538,-4145.153275,1332.370696,-75996.673402
28807.260072,-10362.883188,3404.947333,-75383.797003
28807.262606,-592.164754,7846.182985,-74311.263306
28807.265141,7254.018232,6365.771101,-76303.111601
28807.267675,5921.647536,5477.523971,-75383.797003
28807.270210,-2960.823768,2368.659014,-75690.235202
28807.272744,-5921.647536,-296.082377,-75383.797003
28807.275279,-8882.471304,1776.494261,-77528.864398
28807.277813,1628.453072,11103.089130,-75230.577904
28807.280347,1036.288319,6069.688724,-76303.111601
28807.282882,9474.636058,6513.812290,-74311.263306
28807.285416,-4441.235652,1480.411884,-74617.701505
28807.287951,-5625.565159,2072.576638,-75537.016103
28807.290485,-11547.212695,3108.864956,-75230.577904
28807.293020,-592.164754,3701.029710,-76149.892501
28807.295554,7105.977043,1776.494261,-76609.549800
28807.298088,6069.688724,296.082377,-74004.825107
28807.300623,-5033.400406,1184.329507,-74311.263306
28807.303157,-8734.430116,-3701.029710,-76915.987999
28807.305692,2516.700203,10214.842000,-74617.701505
28807.308226,-2220.617826,11991.336260,-74770.920605
28807.310761,8882.471304,6513.812290,-77682.083497
28807.313295,1924.535449,-1036.288319,-76456.330700
28807.315829,11547.212695,11399.171507,-72319.415011
28807.318364,-9030.512492,6957.935855,-75996.673402
28807.320898,10214.842000,9474.636058,-76303.111601
28807.323433,6661.853478,13619.789333,-73851.606007
28807.325967,9326.594869,14952.160028,-74004.825107
28807.328502,5477.523971,12139.377449,-73851.606007
28807.331036,-2812.782580,4293.194464,-75077.358804
28807.333570,1628.453072,6661.853478,-74617.701505
28807.336105,-3108.864956,5921.647536,-74158.044206
28807.338639,13027.624579,9474.636058,-75690.235202
28807.341174,7550.100608,9474.636058,-77069.207099
28807.343714,13027.624579,11103.089130,-75383.797003
28807.346254,-3108.864956,8882.471304,-74311.263306
28807.348794,4589.276840,2664.741391,-75690.235202
28807.351335,-4885.359217,8438.347739,-74464.482406
28807.353875,12583.501014,11547.212695,-75996.673402
28807.356415,8586.388927,11843.295072,-76456.330700
28807.358956,11547.212695,9770.718434,-74464.482406
28807.361496,2516.700203,10066.800811,-72625.853210
28807.364036,-4737.318029,10362.883188,-73238.729609
28807.366576,-592.164754,11399.171507,-76149.892501
28807.369117,4293.194464,10807.006753,-74617.701505
28807.371657,21614.013506,14508.036463,-73698.386908
28807.374197,10658.965565,12583.501014,-73698.386908
28807.376737,148.041188,5329.482782,-76609.549800
28807.379278,1480.411884,6661.853478,-73698.386908
28807.381818,-9178.553681,10510.924376,-73545.167808
28807.384358,-8290.306550,-2960.823768,-78754.617194
28807.386898,888.247130,-1184.329507,-77069.207099
28807.389439,14211.954086,4737.318029,-74464.482406
28807.391979,592.164754,4885.359217,-75230.577904
28807.394519,-2072.576638,3108.864956,-75383.797003
28807.397060,-15248.242405,1184.329507,-75230.577904
28807.399600,-3849.070898,5329.482782,-74311.263306
28807.402140,-1480.411884,6217.729913,-75690.235202
28807.404680,12879.583391,5921.647536,-76456.330700
28807.407221,2516.700203,3997.112087,-75996.673402
28807.409761,-3404.947333,3108.864956,-73851.606007
28807.412301,-10214.842000,1776.494261,-75690.235202
28807.414841,-5477.523971,5033.400406,-76609.549800
28807.417382,2664.741391,6809.894666,-76456.330700
28807.419922,4885.359217,5033.400406,-76303.111601
28807.422462,5477.523971,3997.112087,-75690.235202
28807.425002,-4885.359217,1480.411884,-76149.892501
28807.427543,-6069.688724,2664.741391,-75843.454302
28807.430083,-4293.194464,2368.659014,-75843.454302
28807.432623,3997.112087,4145.153275,-76609.549800
28807.435164,5625.565159,1480.411884,-75383.797003
28807.437704,-2812.782580,296.082377,-74158.044206
28807.440244,-6069.688724,-3849.070898,-76456.330700
28807.442784,1628.453072,5329.482782,-75383.797003
28807.445329,-3997.112087,10066.800811,-74924.139704
28807.447874,4885.359217,8438.347739,-76456.330700
28807.450419,9622.677246,2960.823768,-75690.235202
28807.452964,6069.688724,10214.842000,-73238.729609
28807.455509,-444.123565,7550.100608,-75230.577904
28807.458054,9770.718434,7846.182985,-75996.673402
28807.460599,5921.647536,13027.624579,-74770.920605
28807.463144,6957.935855,13027.624579,-74464.482406
28807.465689,7846.182985,14211.954086,-74311.263306
28807.468234,-3701.029710,5625.565159,-75690.235202
28807.470779,2812.782580,5921.647536,-74464.482406
28807.473325,444.123565,6069.688724,-74158.044206
28807.475870,12731.542202,8882.471304,-75843.454302
28807.478415,5921.647536,10362.883188,-74924.139704
28807.480960,9474.636058,10510.924376,-73851.606007
28807.483505,-2220.617826,7698.141797,-74004.825107
28807.486050,1776.494261,6069.688724,-74311.263306
28807.488595,1184.329507,6809.894666,-74158.044206
28807.491140,7846.182985,11695.253884,-74617.701505
28807.493685,7105.977043,12139.377449,-76303.111601
28807.496230,8586.388927,9918.759623,-75077.358804
28807.498775,1036.288319,10510.924376,-73698.386908
28807.501320,-592.164754,9326.594869,-74924.139704
28807.503865,-4145.153275,9178.553681,-76456.330700
28807.506410,15248.242405,12879.583391,-75077.358804
28807.508955,15988.448347,15248.242405,-73391.948708
28807.511500,3701.029710,8290.306550,-75843.454302
28807.514045,740.205942,3404.947333,-76149.892501
28807.516590,-2220.617826,10510.924376,-72319.415011
28807.519135,-17024.736666,2072.576638,-76149.892501
28807.521680,444.123565,-444.123565,-77528.864398
28807.524225,5033.400406,2664.741391,-75537.016103
28807.526770,12731.542202,6365.771101,-74770.920605
28807.529315,-4737.318029,1776.494261,-76609.549800
28807.531860,-10510.924376,1184.329507,-75537.016103
28807.534405,-6513.812290,2664.741391,-75383.797003
28807.536950,-888.247130,6069.688724,-74617.701505
28807.539495,6809.894666,5773.606348,-76915.987999
28807.542040,4145.153275,3108.864956,-76456.330700
28807.544585,1776.494261,592.164754,-75690.235202
28807.547133,-15840.407159,1332.370696,-73698.386908
28807.549682,-1332.370696,7550.100608,-75383.797003
28807.552230,-3849.070898,8142.265362,-75230.577904
28807.554779,11695.253884,5033.400406,-75230.577904
28807.557327,-296.082377,3404.947333,-74004.825107
28807.559876,1480.411884,1924.535449,-75996.673402
28807.562424,-10955.047942,740.205942,-75996.673402
28807.564973,-3256.906145,3256.906145,-74617.701505
28807.567521,-592.164754,2220.617826,-76456.330700
28807.570070,7105.977043,592.164754,-76915.987999
28807.572619,-4885.359217,-1924.535449,-75077.358804
28807.575167,-1332.370696,-2960.823768,-76609.549800
28807.577716,1036.288319,7698.141797,-75230.577904
28807.580264,-2960.823768,10362.883188,-75690.235202
28807.582813,-6365.771101,4293.194464,-76303.111601
28807.585361,15988.448347,6513.812290,-74158.044206
28807.587910,-444.123565,10066.800811,-74311.263306
28807.590458,8586.388927,8438.347739,-74924.139704
28807.593007,5477.523971,8734.430116,-75230.577904
28807.595555,10214.842000,13767.830521,-73391.948708
28807.598104,4589.276840,11103.089130,-75077.358804
28807.600652,2516.700203,12583.501014,-74311.263306
28807.603201,-1924.535449,5477.523971,-75383.797003
28807.605749,2664.741391,7846.182985,-74464.482406
28807.608298,3108.864956,6365.771101,-74617.701505
28807.610846,9622.677246,9326.594869,-76456.330700
28807.613395,9474.636058,11251.130318,-75843.454302
28807.615943,4885.359217,8438.347739,-74311.263306
28807.618492,3108.864956,10807.006753,-73851.606007
28807.621040,-444.123565,3849.070898,-75537.016103
28807.623589,4737.318029,9918.759623,-74004.825107
28807.626137,15248.242405,13175.665768,-74924.139704
28807.628686,740.205942,8586.388927,-76609.549800
28807.631234,10066.800811,10510.924376,-74158.044206
28807.633783,-4293.194464,6957.935855,-73085.510509
28807.636331,296.082377,11399.171507,-73545.167808
28807.638880,4885.359217,9918.759623,-75537.016103
28807.641428,19393.395680,17172.777854,-73545.167808
28807.643977,8438.347739,14804.118840,-74770.920605
28807.646525,-1184.329507,3997.112087,-76303.111601
28807.649081,3997.112087,6217.729913,-74770.920605
28807.651632,-17468.860231,4737.318029,-74004.825107
28807.654184,1184.329507,-2220.617826,-77528.864398
28807.656736,-2220.617826,-740.205942,-77375.645298
28807.659288,15100.201217,5033.400406,-75230.577904
28807.661840,-148.041188,4441.235652,-74924.139704
28807.664392,-888.247130,4441.235652,-74924.139704
28807.666944,-12139.377449,3404.947333,-74924.139704
28807.669496,-4441.235652,6513.812290,-74464.482406
28807.672048,3404.947333,5329.482782,-75230.577904
28807.674599,10214.842000,3552.988522,-77682.083497
28807.677151,3997.112087,1184.329507,-75230.577904
28807.679703,-4885.359217,3256.906145,-73698.386908
28807.682255,-8734.430116,1628.453072,-75690.235202
28807.684807,-5181.441594,10658.965565,-75230.577904
28807.687359,7698.141797,5181.441594,-76456.330700
28807.689911,3404.947333,5477.523971,-74158.044206
28807.692463,3108.864956,3701.029710,-74617.701505
28807.695015,-9770.718434,-148.041188,-76915.987999
28807.697566,-2516.700203,2516.700203,-75077.358804
28807.700118,-5625.565159,1184.329507,-75537.016103
28807.702670,5477.523971,1036.288319,-76149.892501
28807.705222,-5625.565159,-1628.453072,-75690.235202
28807.707774,5181.441594,-1332.370696,-75843.454302
28807.710326,1480.411884,7846.182985,-75996.673402
28807.712878,-1332.370696,11547.212695,-74924.139704
28807.715430,-6513.812290,4885.359217,-75843.454302
28807.717982,9622.677246,5329.482782,-73698.386908
28807.720533,1184.329507,10658.965565,-74617.701505
28807.723085,6957.935855,8290.306550,-75383.797003
28807.725637,10658.965565,8882.471304,-75996.673402
28807.728189,8438.347739,14211.954086,-73851.606007
28807.730741,3997.112087,10807.006753,-75383.797003
28807.733293,-740.205942,11399.171507,-74158.044206
28807.735845,444.123565,6069.688724,-75383.797003
28807.738397,5329.482782,7402.059420,-74004.825107
28807.740949,1628.453072,5625.565159,-75230.577904
28807.743500,13619.789333,9178.553681,-76303.111601
28807.746052,7402.059420,9770.718434,-75996.673402
28807.748604,-1480.411884,9918.759623,-73391.948708
28807.751158,5921.647536,3256.906145,-76149.892501
28807.753712,-5773.606348,6809.894666,-75537.016103
28807.756266,13767.830521,11991.336260,-74311.263306
28807.758820,2960.823768,10955.047942,-75843.454302
28807.761374,14508.036463,11843.295072,-75996.673402
28807.763928,-4589.276840,7550.100608,-74770.920605
28807.766482,4589.276840,10214.842000,-73238.729609
28807.769037,-1036.288319,9474.636058,-75383.797003
28807.771591,15248.242405,15840.407159,-75230.577904
28807.774145,14211.954086,16876.695478,-73391.948708
28807.776699,4293.194464,9474.636058,-74004.825107
28807.779253,2960.823768,2812.782580,-76456.330700
28807.781807,-5625.565159,8734.430116,-73545.167808
28807.784361,-15100.201217,-592.164754,-76456.330700
28807.786915,1776.494261,-1184.329507,-76456.330700
28807.789469,7105.977043,2368.659014,-75843.454302
28807.792023,9918.759623,6365.771101,-75077.358804
28807.794577,-3256.906145,2368.659014,-75843.454302
28807.797131,-11103.089130,1036.288319,-75537.016103
28807.799685,-6661.853478,3701.029710,-75077.358804
28807.802239,-3552.988522,5773.606348,-75383.797003
28807.804793,8290.306550,5921.647536,-76456.330700
28807.807347,9030.512492,3108.864956,-76149.892501
28807.809901,1924.535449,592.164754,-75996.673402
28807.812455,-10658.965565,4293.194464,-75690.235202
28807.815009,-3849.070898,8142.265362,-74924.139704
28807.817563,-5477.523971,6365.771101,-75690.235202
28807.820117,3997.112087,5773.606348,-74924.139704
28807.822671,5921.647536,3997.112087,-76762.768900
28807.825225,-1184.329507,592.164754,-77528.864398
28807.827779,-2220.617826,3108.864956,-75843.454302
28807.830333,-8290.306550,1924.535449,-75230.577904
28807.832888,592.164754,148.041188,-76915.987999
28807.835442,-3997.112087,-1036.288319,-75843.454302
28807.837996,296.082377,-3404.947333,-75843.454302
28807.840550,10066.800811,6365.771101,-75230.577904
28807.843104,-3701.029710,11103.089130,-74924.139704
28807.845658,-3552.988522,6069.688724,-75537.016103
28807.848212,740.205942,4441.235652,-74311.263306
28807.850766,1776.494261,10955.047942,-74158.044206
28807.853322,9918.759623,8882.471304,-76149.892501
28807.855878,11843.295072,9770.718434,-75996.673402
28807.858434,10658.965565,14063.912898,-73851.606007
28807.860990,2368.659014,11399.171507,-74158.044206
28807.863546,1184.329507,11103.089130,-74770.920605
28807.866103,-5033.400406,7254.018232,-74770.920605
28807.868659,8290.306550,6809.894666,-74464.482406
28807.871215,3108.864956,6513.812290,-75996.673402
28807.873771,10955.047942,10807.006753,-75230.577904
28807.876327,6957.935855,9474.636058,-75537.016103
28807.878883,0.000000,10214.842000,-74311.263306
28807.881439,5625.565159,4441.235652,-76149.892501
28807.883996,-3256.906145,5921.647536,-75843.454302
28807.886552,10807.006753,10658.965565,-74158.044206
28807.889108,6069.688724,11991.336260,-74770.920605
28807.891664,8290.306550,10658.965565,-76149.892501
28807.894220,-1332.370696,7254.018232,-74311.263306
28807.896776,-3256.906145,10066.800811,-73851.606007
28807.899332,5181.441594,12879.583391,-74464.482406
28807.901889,14211.954086,17764.942608,-74924.139704
28807.904445,14359.995275,17172.777854,-74617.701505
28807.907001,296.082377,7254.018232,-74617.701505
28807.909557,6957.935855,3701.029710,-75077.358804
28807.912113,-11103.089130,4885.359217,-74924.139704
28807.914669,-4885.359217,-2812.782580,-76762.768900
28807.917225,-888.247130,296.082377,-75996.673402
28807.919782,10362.883188,3552.988522,-75996.673402
28807.922338,6957.935855,4737.318029,-76609.549800
28807.924894,-2664.741391,3997.112087,-75230.577904
28807.927450,-12435.459826,1776.494261,-74617.701505
28807.930006,-7698.141797,5033.400406,-75077.358804
28807.932562,-1480.411884,4441.235652,-76456.330700
28807.935118,6513.812290,3256.906145,-76609.549800
28807.937675,7402.059420,3256.906145,-75843.454302
28807.940231,-2664.741391,2072.576638,-75996.673402
28807.942787,-9178.553681,5033.400406,-74617.701505
28807.945343,-5625.565159,6513.812290,-75230.577904
28807.947899,-1628.453072,1628.453072,-75230.577904
28807.950455,10658.965565,6513.812290,-73545.167808
28807.953011,-2220.617826,1628.453072,-75996.673402
28807.955569,1776.494261,3701.029710,-75383.797003
28807.958127,-8142.265362,2220.617826,-73851.606007
28807.960685,-4293.194464,888.247130,-75537.016103
28807.963243,-5921.647536,-2072.576638,-76303.111601
28807.965801,-2220.617826,-4737.318029,-75843.454302
28807.968359,15840.407159,5921.647536,-74924.139704
28807.970917,-2368.659014,7698.141797,-76303.111601
28807.973475,-2812.782580,7105.977043,-77222.426198
28807.976033,-888.247130,3552.988522,-73851.606007
28807.978590,2072.576638,14508.036463,-72779.072310
28807.981148,3404.947333,9918.759623,-75843.454302
28807.983706,16876.695478,11991.336260,-75383.797003
28807.986264,11695.253884,13915.871710,-73698.386908
28807.988822,3552.988522,9622.677246,-74924.139704
28807.991380,1924.535449,10955.047942,-75383.797003
28807.993938,-5921.647536,5477.523971,-75690.235202
28807.996496,6513.812290,8734.430116,-74924.139704
28807.999054,3404.947333,7550.100608,-74464.482406
28808.001612,13323.706956,7698.141797,-76762.768900
28808.004169,10510.924376,9770.718434,-76149.892501
28808.006727,-4737.318029,7402.059420,-74004.825107
28808.009285,6365.771101,6957.935855,-74158.044206
28808.011843,-6069.688724,5033.400406,-75996.673402
28808.014401,15248.242405,12435.459826,-75690.235202
28808.016959,6069.688724,11251.130318,-75383.797003
28808.019517,10510.924376,11251.130318,-74464.482406
28808.022075,1036.288319,6661.853478,-74158.044206
28808.024633,-5181.441594,8586.388927,-73851.606007
28808.027191,12139.377449,14508.036463,-74158.044206
28808.029749,8734.430116,16728.654289,-74924.139704
28808.032306,14359.995275,15840.407159,-74617.701505
28808.034864,-2072.576638,4737.318029,-74617.701505
28808.037422,7105.977043,6513.812290,-73085.510509
28808.039980,-19985.560434,3997.112087,-75230.577904
28808.042538,-148.041188,-3701.029710,-77528.864398
28808.045096,-1924.535449,1036.288319,-76456.330700
28808.047654,15544.324782,6365.771101,-75690.235202
28808.050212,-1036.288319,2368.659014,-76456.330700
28808.052770,-4145.153275,3256.906145,-74311.263306
28808.055328,-10658.965565,3256.906145,-74617.701505
28808.057887,-7994.224174,6069.688724,-75383.797003
28808.060447,4145.153275,4441.235652,-76915.987999
28808.063006,7254.018232,4441.235652,-75996.673402
28808.065566,5033.400406,3108.864956,-74004.825107
28808.068125,-8438.347739,6365.771101,-74464.482406
28808.070685,-5773.606348,5477.523971,-77222.426198
28808.073244,-7105.977043,7846.182985,-75230.577904
28808.075804,296.082377,4737.318029,-73545.167808
28808.078363,6661.853478,3256.906145,-75383.797003
28808.080923,1480.411884,2072.576638,-76915.987999
28808.083482,-2072.576638,1480.411884,-76762.768900
28808.086042,-3997.112087,4441.235652,-75383.797003
28808.088601,-6217.729913,296.082377,-76303.111601
28808.091161,-9622.677246,-5329.482782,-76762.768900
28808.093720,11399.171507,-1332.370696,-75690.235202
28808.096280,3552.988522,8438.347739,-75230.577904
28808.098839,-1332.370696,8586.388927,-76915.987999
28808.101399,-4441.235652,2368.659014,-76609.549800
28808.103959,5921.647536,13027.624579,-71553.319513
28808.106518,-4145.153275,12139.377449,-73698.386908
28808.109078,18357.107362,11547.212695,-76609.549800
28808.111637,8438.347739,13175.665768,-74617.701505
28808.114197,11399.171507,14359.995275,-73545.167808
28808.116756,3256.906145,7846.182985,-75537.016103
28808.119316,-5329.482782,7254.018232,-75537.016103
28808.121875,-148.041188,5773.606348,-75383.797003
28808.124435,3849.070898,7994.224174,-75230.577904
28808.126994,9622.677246,10214.842000,-74617.701505
28808.129554,8586.388927,7550.100608,-76303.111601
28808.132113,3997.112087,10066.800811,-74158.044206
28808.134673,3849.070898,6809.894666,-73085.510509
28808.137232,-3404.947333,5033.400406,-75230.577904
28808.139792,6365.771101,10510.924376,-74924.139704
28808.142351,6809.894666,13915.871710,-74464.482406
28808.144911,11251.130318,10658.965565,-75383.797003
28808.147470,2368.659014,7698.141797,-74770.920605
28808.150030,-1480.411884,8438.347739,-73545.167808
28808.152589,4441.235652,12879.583391,-75383.797003
28808.155149,12731.542202,19541.436869,-75383.797003
28808.157708,6513.812290,16728.654289,-75537.016103
28808.160269,5921.647536,5773.606348,-75690.235202
28808.162830,7254.018232,7105.977043,-73085.510509
28808.165391,-18061.024985,1924.535449,-74617.701505
28808.167952,-3256.906145,-4737.318029,-78141.740796
28808.170513,-4145.153275,888.247130,-75230.577904
28808.173074,15100.201217,6217.729913,-75383.797003
28808.175635,592.164754,3997.112087,-76915.987999
28808.178195,-1924.535449,3256.906145,-75383.797003
28808.180756,-9030.512492,2368.659014,-74311.263306
28808.183317,-9770.718434,4589.276840,-74311.263306
28808.185878,1480.411884,4885.359217,-76456.330700
28808.188439,5329.482782,2812.782580,-76762.768900
28808.191000,4737.318029,1184.329507,-76303.111601
28808.193561,-2516.700203,7698.141797,-73698.386908
28808.196122,-6513.812290,1480.411884,-77069.207099
28808.198682,-4589.276840,8734.430116,-76456.330700
28808.201243,-5329.482782,2368.659014,-75077.358804
28808.203804,10362.883188,5921.647536,-75537.016103
28808.206365,-888.247130,2368.659014,-78141.740796
28808.208926,2516.700203,2368.659014,-76609.549800
28808.211487,-3701.029710,1480.411884,-75537.016103
28808.214048,-13175.665768,-3552.988522,-76609.549800
28808.216609,-5477.523971,-7105.977043,-77069.207099
28808.219169,14359.995275,3256.906145,-74770.920605
28808.221730,3552.988522,9030.512492,-75996.673402
28808.224291,-2812.782580,6365.771101,-77528.864398
28808.226852,4293.194464,592.164754,-75996.673402
28808.229413,-2960.823768,14656.077652,-70787.224015
28808.231974,296.082377,11251.130318,-75996.673402
28808.234535,8290.306550,12435.459826,-76149.892501
28808.237095,15988.448347,16136.489536,-73238.729609
28808.239656,6957.935855,13471.748144,-74004.825107
28808.242217,3701.029710,9178.553681,-75077.358804
28808.244778,-9326.594869,4737.318029,-74924.139704
28808.247339,3404.947333,6957.935855,-74770.920605
28808.249900,1924.535449,8438.347739,-74311.263306
28808.252461,13471.748144,12139.377449,-75690.235202
28808.255022,9030.512492,10362.883188,-74770.920605
28808.257582,-444.123565,6513.812290,-73545.167808
28808.260143,1332.370696,3849.070898,-74770.920605
28808.262705,740.205942,7254.018232,-74924.139704
28808.265266,5921.647536,13767.830521,-74311.263306
28808.267827,8586.388927,13027.624579,-75230.577904
28808.270389,7994.224174,9918.759623,-75383.797003
28808.272950,4145.153275,8438.347739,-74464.482406
28808.275511,1332.370696,10807.006753,-73545.167808
28808.278073,8734.430116,17468.860231,-74004.825107
28808.280634,10362.883188,20133.601622,-74004.825107
28808.283195,1480.411884,9622.677246,-76303.111601
28808.285757,11695.253884,5181.441594,-73545.167808
28808.288318,-7254.018232,5921.647536,-72779.072310
28808.290879,-11103.089130,-7254.018232,-77682.083497
28808.293441,-3256.906145,-3256.906145,-76762.768900
28808.296002,5033.400406,5625.565159,-75690.235202
28808.298563,9474.636058,6809.894666,-77069.207099
28808.301125,-2960.823768,4293.194464,-75996.673402
28808.303686,-6513.812290,2072.576638,-74770.920605
28808.306247,-9474.636058,3256.906145,-74617.701505
28808.308809,-3108.864956,4441.235652,-75996.673402
28808.311370,6809.894666,5181.441594,-76149.892501
28808.313931,740.205942,2664.741391,-75383.797003
28808.316493,5033.400406,7105.977043,-74311.263306
28808.319054,-8882.471304,3552.988522,-75996.673402
28808.321616,-2664.741391,6661.853478,-77222.426198
28808.324177,-6809.894666,2368.659014,-74770.920605
28808.326738,5625.565159,5773.606348,-74617.701505
28808.329300,296.082377,2368.659014,-76456.330700
28808.331861,2072.576638,2516.700203,-76762.768900
28808.334422,-3108.864956,2220.617826,-74464.482406
28808.336984,-14952.160028,-4293.194464,-75996.673402
28808.339545,-4441.235652,-7254.018232,-77069.207099
28808.342106,9474.636058,3256.906145,-75383.797003
28808.344668,6069.688724,10066.800811,-75537.016103
28808.347229,-4885.359217,6365.771101,-78141.740796
28808.349790,7846.182985,1924.535449,-76303.111601
28808.352352,-7254.018232,13175.665768,-71553.319513
28808.354913,7105.977043,9474.636058,-75996.673402
28808.357474,11103.089130,11547.212695,-76915.987999
28808.360036,11695.253884,14508.036463,-74158.044206
28808.362597,10066.800811,13323.706956,-73391.948708
28808.365159,740.205942,8586.388927,-74311.263306
28808.367720,-4589.276840,5477.523971,-75230.577904
28808.370282,296.082377,7550.100608,-74770.920605
28808.372844,8290.306550,10362.883188,-74158.044206
28808.375405,7402.059420,8290.306550,-76456.330700
28808.377967,12731.542202,10807.006753,-75230.577904
28808.380529,3701.029710,5181.441594,-74158.044206
28808.383090,-3256.906145,5033.400406,-73851.606007
28808.385652,2220.617826,10955.047942,-74617.701505
28808.388214,4737.318029,13175.665768,-74617.701505
28808.390775,10362.883188,12435.459826,-75383.797003
28808.393337,5625.565159,9918.759623,-74924.139704
28808.395898,6069.688724,7402.059420,-74924.139704
28808.398460,4737.318029,12435.459826,-72779.072310
28808.401022,9918.759623,18209.066173,-73851.606007
28808.403583,888.247130,15840.407159,-75383.797003
28808.406145,6365.771101,7105.977043,-75843.454302
28808.408707,2516.700203,8142.265362,-72779.072310
28808.411268,-15248.242405,-4145.153275,-76915.987999
28808.413830,-1480.411884,-6513.812290,-77682.083497
28808.416392,-3701.029710,2516.700203,-75077.358804
28808.418953,9770.718434,5773.606348,-75383.797003
28808.421515,2516.700203,5625.565159,-76149.892501
28808.424077,-4885.359217,3256.906145,-75230.577904
28808.426638,-4885.359217,2960.823768,-74158.044206
28808.429200,-6069.688724,3849.070898,-74924.139704
28808.431762,1776.494261,3404.947333,-77222.426198
28808.434323,3997.112087,3552.988522,-76149.892501
28808.436885,5477.523971,3404.947333,-74617.701505
28808.439447,-7402.059420,5625.565159,-73545.167808
28808.442008,-1332.370696,5625.565159,-75690.235202
28808.444570,-10955.047942,1776.494261,-76915.987999
28808.447132,3849.070898,5033.400406,-74924.139704
28808.449693,1628.453072,3701.029710,-76609.549800
28808.452255,2664.741391,2812.782580,-77528.864398
28808.454817,-1184.329507,1776.494261,-75230.577904
28808.457378,-13471.748144,-2664.741391,-75690.235202
28808.459940,-8438.347739,-6809.894666,-75537.016103
28808.462502,6513.812290,0.000000,-75690.235202
28808.465063,5625.565159,7994.224174,-74770.920605
28808.467626,-2664.741391,10214.842000,-75383.797003
28808.470188,9178.553681,3256.906145,-76303.111601
28808.472750,-3404.947333,13767.830521,-72012.976812
28808.475312,296.082377,10362.883188,-74770.920605
28808.477875,14804.118840,11991.336260,-76303.111601
28808.480437,9030.512492,13175.665768,-74617.701505
28808.482999,13915.871710,13767.830521,-73698.386908
28808.485562,2072.576638,8734.430116,-74924.139704
28808.488124,-296.082377,5477.523971,-75077.358804
28808.490686,1776.494261,7550.100608,-74770.920605
28808.493248,1924.535449,9474.636058,-74158.044206
28808.495811,13767.830521,10362.883188,-75843.454302
28808.498373,8142.265362,9474.636058,-75843.454302
28808.500935,8734.430116,5921.647536,-74617.701505
28808.503498,-3997.112087,5477.523971,-73545.167808
28808.506060,2812.782580,7698.141797,-75996.673402
28808.508622,2664.741391,11547.212695,-76762.768900
28808.511185,10066.800811,12879.583391,-74464.482406
28808.513747,5625.565159,10362.883188,-74617.701505
28808.516309,6069.688724,9918.759623,-74004.825107
28808.518871,6957.935855,13027.624579,-73391.948708
28808.521434,7402.059420,19245.354492,-73545.167808
28808.523996,444.123565,12139.377449,-76762.768900
28808.526558,6513.812290,6661.853478,-76149.892501
28808.529121,7254.018232,7994.224174,-73238.729609
28808.531683,-12583.501014,-5625.565159,-77988.521696
28808.534245,888.247130,-4737.318029,-76915.987999
28808.536808,-5181.441594,2072.576638,-74311.263306
28808.539370,9770.718434,7550.100608,-75230.577904
28808.541932,-2220.617826,4589.276840,-76762.768900
28808.544494,-5033.400406,4737.318029,-75230.577904
28808.547057,-4589.276840,3256.906145,-73851.606007
28808.549619,-7550.100608,3552.988522,-74617.701505
28808.552181,2072.576638,5033.400406,-77069.207099
28808.554744,2812.782580,592.164754,-77835.302597
28808.557306,3256.906145,5329.482782,-75996.673402
28808.559868,-5921.647536,6365.771101,-74158.044206
28808.562430,-4145.153275,5033.400406,-76456.330700
28808.564993,-5329.482782,3849.070898,-74770.920605
28808.567555,1184.329507,3256.906145,-74311.263306
28808.570117,1036.288319,3108.864956,-77222.426198
28808.572680,-1480.411884,1184.329507,-76149.892501
28808.575242,-3849.070898,592.164754,-75383.797003
28808.577804,-14359.995275,-6365.771101,-76149.892501
28808.580367,-740.205942,-6365.771101,-77069.207099
28808.582929,6217.729913,6809.894666,-75383.797003
28808.585491,8142.265362,11991.336260,-75077.358804
28808.588053,-10658.965565,5921.647536,-77222.426198
28808.590616,16580.613101,9326.594869,-73851.606007
28808.593178,-10510.924376,11843.295072,-72472.634111
28808.595740,20577.725188,12287.418637,-74924.139704
28808.598303,-148.041188,10658.965565,-75230.577904
28808.600865,16432.571912,14804.118840,-74158.044206
28808.603427,6069.688724,10658.965565,-74311.263306
28808.605989,592.164754,8734.430116,-74311.263306
28808.608552,-3256.906145,5477.523971,-74617.701505
28808.611114,0.000000,7994.224174,-73545.167808
28808.613676,6217.729913,10807.006753,-75383.797003
28808.616239,9918.759623,12435.459826,-74770.920605
28808.618801,4589.276840,6809.894666,-75843.454302
28808.621363,4441.235652,7105.977043,-73238.729609
28808.623926,-444.123565,5477.523971,-73238.729609
28808.626488,1924.535449,11103.089130,-75230.577904
28808.629050,6957.935855,10955.047942,-74924.139704
28808.631612,9622.677246,11103.089130,-74004.825107
28808.634175,8438.347739,9918.759623,-74924.139704
28808.636737,5181.441594,12583.501014,-74464.482406
28808.639299,11399.171507,18653.189738,-72779.072310
28808.641862,-3108.864956,14508.036463,-75077.358804
28808.644424,4737.318029,6957.935855,-76149.892501
28808.646986,7698.141797,9474.636058,-73391.948708
28808.649549,-14063.912898,-148.041188,-76456.330700
28808.652111,2812.782580,-5773.606348,-77528.864398
28808.654673,-10362.883188,-3552.988522,-76303.111601
28808.657235,12435.459826,6957.935855,-75383.797003
28808.659798,-5477.523971,5921.647536,-76456.330700
28808.662360,1184.329507,5329.482782,-75690.235202
28808.664922,-9918.759623,2812.782580,-74924.139704
28808.667485,-3997.112087,5477.523971,-73698.386908
28808.670047,-444.123565,2220.617826,-75843.454302
28808.672607,4885.359217,2072.576638,-76456.330700
28808.675170,888.247130,3256.906145,-75690.235202
28808.677732,-2812.782580,6957.935855,-73545.167808
28808.680295,-3256.906145,3552.988522,-76762.768900
28808.682858,-7846.182985,4589.276840,-74924.139704
28808.685421,1184.329507,4885.359217,-74158.044206
28808.687983,296.082377,2368.659014,-75843.454302
28808.690546,3108.864956,3108.864956,-77069.207099
28808.693109,-4293.194464,444.123565,-75996.673402
28808.695671,-11695.253884,-7105.977043,-74924.139704
28808.698234,1924.535449,-3997.112087,-75843.454302
28808.700797,4145.153275,6661.853478,-75230.577904
28808.703359,3701.029710,10214.842000,-75230.577904
28808.705922,-4885.359217,3997.112087,-76456.330700
28808.708485,9770.718434,12879.583391,-73545.167808
28808.711048,-7105.977043,12583.501014,-73085.510509
28808.713610,17616.901420,11843.295072,-75383.797003
28808.716173,3849.070898,11399.171507,-75537.016103
28808.718736,15100.201217,13175.665768,-74158.044206
28808.721298,2812.782580,8882.471304,-74924.139704
28808.723861,3849.070898,7550.100608,-74924.139704
28808.726424,-3552.988522,4885.359217,-76609.549800
28808.728987,1184.329507,9178.553681,-74158.044206
28808.731549,8882.471304,9770.718434,-75996.673402
28808.734112,9918.759623,11547.212695,-76609.549800
28808.736675,5477.523971,6217.729913,-76456.330700
28808.739237,-4441.235652,6217.729913,-72472.634111
28808.741800,5477.523971,8882.471304,-76303.111601
28808.744363,2072.576638,10510.924376,-76303.111601
28808.746925,9326.594869,12879.583391,-74311.263306
28808.749488,6069.688724,8882.471304,-74311.263306
28808.752051,7105.977043,11547.212695,-74924.139704
28808.754614,7994.224174,14508.036463,-74004.825107
28808.757177,10362.883188,20725.766376,-73698.386908
28808.759740,-888.247130,10214.842000,-75383.797003
28808.762303,6661.853478,6365.771101,-74770.920605
28808.764866,-296.082377,6217.729913,-74004.825107
28808.767429,-7550.100608,-7402.059420,-77988.521696
28808.769992,-6513.812290,-4589.276840,-76762.768900
28808.772556,3256.906145,3701.029710,-74311.263306
28808.775119,4293.194464,6661.853478,-75843.454302
28808.777682,296.082377,4737.318029,-76303.111601
28808.780245,-10066.800811,3256.906145,-74924.139704
28808.782808,-2960.823768,3552.988522,-74464.482406
28808.785371,-4589.276840,3701.029710,-75077.358804
28808.787934,2664.741391,5921.647536,-76149.892501
28808.790497,-444.123565,1924.535449,-75690.235202
28808.793060,4589.276840,7105.977043,-72779.072310
28808.795623,-2960.823768,4293.194464,-75383.797003
28808.798186,-6365.771101,2664.741391,-76456.330700
28808.800749,-1924.535449,2516.700203,-74924.139704
28808.803313,444.123565,4737.318029,-74158.044206
28808.805876,1036.288319,3997.112087,-76456.330700
28808.808439,-2368.659014,740.205942,-76149.892501
28808.811002,-11399.171507,-6809.894666,-75996.673402
28808.813565,-1332.370696,-6365.771101,-75537.016103
28808.816128,4441.235652,6365.771101,-74004.825107
28808.818691,3404.947333,9770.718434,-75230.577904
28808.821254,-3701.029710,6957.935855,-75843.454302
28808.823817,9770.718434,8290.306550,-74158.044206
28808.826380,-4441.235652,12731.542202,-74158.044206
28808.828943,14211.954086,11399.171507,-75690.235202
28808.831506,4293.194464,11103.089130,-75230.577904
28808.834070,13619.789333,13619.789333,-74617.701505
28808.836633,4589.276840,10066.800811,-74004.825107
28808.839196,2220.617826,7698.141797,-74924.139704
28808.841759,-1628.453072,6069.688724,-75690.235202
28808.844322,592.164754,8290.306550,-74464.482406
28808.846885,8586.388927,10658.965565,-74158.044206
28808.849448,2812.782580,6513.812290,-77528.864398
28808.852011,5181.441594,8586.388927,-74617.701505
28808.854574,6217.729913,6217.729913,-73698.386908
28808.857137,296.082377,7846.182985,-74770.920605
28808.859700,4737.318029,13471.748144,-75537.016103
28808.862262,3256.906145,10510.924376,-74924.139704
28808.864825,9474.636058,11103.089130,-73851.606007
28808.867388,7402.059420,10658.965565,-73851.606007
28808.869951,11547.212695,15396.283594,-74617.701505
28808.872513,9326.594869,19689.478057,-73545.167808
28808.875076,-5033.400406,8882.471304,-75230.577904
28808.877639,8882.471304,8142.265362,-74770.920605
28808.880201,-7550.100608,5033.400406,-74158.044206
28808.882764,-296.082377,-7550.100608,-77375.645298
28808.885327,-6957.935855,-6069.688724,-77375.645298
28808.887890,1776.494261,2664.741391,-75077.358804
28808.890452,5921.647536,7994.224174,-75537.016103
28808.893015,-3552.988522,5625.565159,-75690.235202
28808.895578,-9622.677246,4885.359217,-74770.920605
28808.898140,-3997.112087,3849.070898,-75077.358804
28808.900703,-2516.700203,3701.029710,-75537.016103
28808.903266,6217.729913,3108.864956,-78141.740796
28808.905829,-1036.288319,740.205942,-78141.740796
28808.908391,5181.441594,7846.182985,-74158.044206
28808.910954,-4589.276840,2960.823768,-75843.454302
28808.913517,-2960.823768,3849.070898,-75996.673402
28808.916080,-888.247130,3256.906145,-75690.235202
28808.918642,1628.453072,5033.400406,-75996.673402
28808.921205,2220.617826,2516.700203,-77375.645298
28808.923768,-5921.647536,-592.164754,-77222.426198
28808.926330,-8142.265362,-8586.388927,-76303.111601
28808.928893,-1776.494261,-5181.441594,-75383.797003
28808.931456,5921.647536,6513.812290,-75383.797003
28808.934019,-296.082377,10066.800811,-75690.235202
28808.936581,4293.194464,4737.318029,-75996.673402
28808.939144,2368.659014,14508.036463,-73085.510509
28808.941707,2072.576638,13027.624579,-74158.044206
28808.944269,11399.171507,12583.501014,-74617.701505
28808.946832,7254.018232,13027.624579,-74770.920605
28808.949395,11843.295072,13323.706956,-74617.701505
28808.951958,4885.359217,7994.224174,-75230.577904
28808.954520,2220.617826,6661.853478,-75690.235202
28808.957083,2220.617826,6365.771101,-74311.263306
28808.959646,2812.782580,7994.224174,-74770.920605
28808.962209,6661.853478,10214.842000,-74617.701505
28808.964772,9030.512492,10362.883188,-74924.139704
28808.967335,5181.441594,5477.523971,-75077.358804
28808.969898,4589.276840,8586.388927,-71859.757712
28808.972461,-1184.329507,7698.141797,-73698.386908
28808.975023,5329.482782,11547.212695,-75843.454302
28808.977586,5181.441594,12583.501014,-74004.825107
28808.980149,10362.883188,10955.047942,-73698.386908
28808.982712,10214.842000,13767.830521,-74311.263306
28808.985275,10066.800811,17912.983796,-73391.948708
28808.987838,-3849.070898,13619.789333,-74924.139704
28808.990401,4885.359217,7550.100608,-75537.016103
28808.992964,5329.482782,11251.130318,-75077.358804
28808.995527,-11991.336260,-2664.741391,-77222.426198
28808.998090,-2072.576638,-6217.729913,-77069.207099
28809.000653,-4293.194464,-1776.494261,-75230.577904
28809.003216,10510.924376,6069.688724,-76609.549800
28809.005778,-5773.606348,6661.853478,-75996.673402
28809.008341,-1332.370696,6069.688724,-75077.358804
28809.010904,-8438.347739,2072.576638,-75077.358804
28809.013467,-1332.370696,4589.276840,-74617.701505
28809.016030,-1184.329507,2960.823768,-75537.016103
28809.018593,4737.318029,148.041188,-78754.617194
28809.021156,-3701.029710,6069.688724,-74617.701505
28809.023719,-592.164754,7698.141797,-73238.729609
28809.026282,-8142.265362,3701.029710,-75383.797003
28809.028845,-3552.988522,3849.070898,-74617.701505
28809.031408,0.000000,3701.029710,-75077.358804
28809.033971,1628.453072,2960.823768,-76762.768900
28809.036534,-296.082377,2664.741391,-77222.426198
28809.039096,-8290.306550,-8142.265362,-75690.235202
28809.041659,-296.082377,-6217.729913,-74924.139704
28809.044222,4737.318029,4737.318029,-74464.482406
28809.046785,1628.453072,9622.677246,-75843.454302
28809.049348,-4589.276840,4145.153275,-75843.454302
28809.051911,10658.965565,16728.654289,-71553.319513
28809.054474,-4441.235652,11251.130318,-73391.948708
28809.057037,19689.478057,11695.253884,-75230.577904
28809.059600,592.164754,13175.665768,-73851.606007
28809.062162,15544.324782,14211.954086,-74770.920605
28809.064724,2220.617826,7698.141797,-75996.673402
28809.067286,4885.359217,6957.935855,-74770.920605
28809.069849,-1332.370696,4441.235652,-75996.673402
28809.072411,5477.523971,6513.812290,-74464.482406
28809.074973,5181.441594,10955.047942,-74770.920605
28809.077535,7105.977043,10510.924376,-75230.577904
28809.080098,8734.430116,5773.606348,-75690.235202
28809.082660,296.082377,6957.935855,-72319.415011
28809.085222,2516.700203,9770.718434,-74617.701505
28809.087784,5773.606348,11991.336260,-75690.235202
28809.090347,2812.782580,10214.842000,-75077.358804
28809.092909,14656.077652,13619.789333,-72779.072310
28809.095471,7550.100608,12583.501014,-74464.482406
28809.098033,14211.954086,18505.148550,-74158.044206
28809.100595,-6957.935855,10658.965565,-75230.577904
28809.103158,9474.636058,10066.800811,-75230.577904
28809.105720,-3997.112087,6957.935855,-75690.235202
28809.108282,-3404.947333,-5921.647536,-77375.645298
28809.110844,-3997.112087,-6513.812290,-75996.673402
28809.113407,-2220.617826,-2368.659014,-74311.263306
28809.115969,8586.388927,5921.647536,-76149.892501
28809.118531,-6957.935855,6365.771101,-75537.016103
28809.121093,-6217.729913,7105.977043,-75383.797003
28809.123656,-5033.400406,2072.576638,-74464.482406
28809.126218,-1332.370696,2516.700203,-75383.797003
28809.128780,1776.494261,3108.864956,-75843.454302
28809.131342,4293.194464,5329.482782,-75230.577904
28809.133904,-2220.617826,7402.059420,-74004.825107
28809.136467,-2368.659014,5921.647536,-74158.044206
28809.139029,-6661.853478,1480.411884,-76303.111601
28809.141591,-296.082377,1924.535449,-75230.577904
28809.144153,-888.247130,4737.318029,-76149.892501
28809.146716,3404.947333,4145.153275,-77069.207099
28809.149278,-9622.677246,-3108.864956,-77988.521696
28809.151840,-3997.112087,-8290.306550,-75690.235202
28809.154402,-444.123565,-3552.988522,-74770.920605
28809.156965,5625.565159,6217.729913,-75383.797003
28809.159527,-5181.441594,9474.636058,-76609.549800
28809.162089,4737.318029,7994.224174,-73391.948708
28809.164651,-5625.565159,13915.871710,-72779.072310
28809.167213,11843.295072,11843.295072,-75230.577904
28809.169774,6661.853478,12583.501014,-74924.139704
28809.172336,12287.418637,14952.160028,-72625.853210
28809.174898,7698.141797,13027.624579,-74464.482406
28809.177460,3404.947333,8438.347739,-74617.701505
28809.180022,-148.041188,4885.359217,-75230.577904
28809.182584,2220.617826,7105.977043,-74464.482406
28809.185145,4885.359217,10066.800811,-74158.044206
28809.187707,6365.771101,11103.089130,-75383.797003
28809.190269,10510.924376,6217.729913,-76303.111601
28809.192831,-1776.494261,6809.894666,-73085.510509
28809.195393,5773.606348,9918.759623,-75077.358804
28809.197954,2812.782580,10807.006753,-75843.454302
28809.200516,4293.194464,11991.336260,-74617.701505
28809.203078,12435.459826,13027.624579,-72625.853210
28809.205640,7254.018232,13027.624579,-74004.825107
28809.208202,15396.283594,17468.860231,-74617.701505
28809.210764,-7254.018232,13767.830521,-74158.044206
28809.213325,7846.182985,8734.430116,-75077.358804
28809.215887,-2664.741391,8290.306550,-74158.044206
28809.218449,-6365.771101,-3849.070898,-78141.740796
28809.221011,-2072.576638,-7698.141797,-76609.549800
28809.223573,-4885.359217,-2368.659014,-74924.139704
28809.226134,9918.759623,3997.112087,-76915.987999
28809.228696,-5477.523971,6513.812290,-76609.549800
28809.231258,0.000000,6365.771101,-74464.482406
28809.233820,-10807.006753,3108.864956,-75230.577904
28809.236382,-1776.494261,3701.029710,-75077.358804
28809.238944,2812.782580,1628.453072,-76762.768900
28809.241505,3404.947333,3404.947333,-76762.768900
28809.244067,2664.741391,8438.347739,-74311.263306
28809.246629,-3997.112087,5033.400406,-74617.701505
28809.249191,-6661.853478,2664.741391,-76609.549800
28809.251753,-3108.864956,1184.329507,-75230.577904
28809.254314,-2220.617826,2516.700203,-75230.577904
28809.256876,5033.400406,5329.482782,-76915.987999
28809.259438,-10362.883188,-4145.153275,-77682.083497
28809.262000,-444.123565,-8290.306550,-75537.016103
28809.264562,148.041188,-2368.659014,-73391.948708
28809.267123,3997.112087,5921.647536,-75843.454302
28809.269685,-7254.018232,6069.688724,-76915.987999
28809.272247,8438.347739,8142.265362,-74311.263306
28809.274808,1332.370696,15692.365970,-72779.072310
28809.277370,12435.459826,11843.295072,-75690.235202
28809.279932,5773.606348,11103.089130,-74924.139704
28809.282493,10066.800811,15544.324782,-72932.291410
28809.285055,6217.729913,11843.295072,-74311.263306
28809.287617,888.247130,8142.265362,-75537.016103
28809.290178,3701.029710,6809.894666,-75383.797003
28809.292740,3404.947333,6365.771101,-74924.139704
28809.295301,7994.224174,10658.965565,-74004.825107
28809.297863,13175.665768,10214.842000,-76303.111601
28809.300425,740.205942,3849.070898,-77222.426198
28809.302986,11103.089130,7846.182985,-73085.510509
28809.305548,-1924.535449,5181.441594,-74464.482406
28809.308110,7402.059420,12583.501014,-76149.892501
28809.310671,2072.576638,11251.130318,-75383.797003
28809.313233,10955.047942,13323.706956,-73085.510509
28809.315795,12731.542202,15988.448347,-72779.072310
28809.318356,5477.523971,17912.983796,-75077.358804
28809.320918,-1924.535449,10658.965565,-75230.577904
28809.323479,5181.441594,8882.471304,-74004.825107
28809.326041,0.000000,9918.759623,-74770.920605
28809.328603,-7254.018232,-7254.018232,-78601.398095
28809.331164,-2368.659014,-5625.565159,-75996.673402
28809.333726,-3552.988522,-2664.741391,-74924.139704
28809.336288,9030.512492,4293.194464,-76303.111601
28809.338849,-2812.782580,5773.606348,-76303.111601
28809.341411,-6365.771101,6809.894666,-73391.948708
28809.343973,-4589.276840,2368.659014,-74617.701505
28809.346534,-3701.029710,2072.576638,-75383.797003
28809.349096,3701.029710,4589.276840,-74617.701505
28809.351658,3256.906145,592.164754,-76149.892501
28809.354219,1776.494261,9622.677246,-74464.482406
28809.356781,-444.123565,3849.070898,-74617.701505
28809.359342,-11251.130318,-592.164754,-77222.426198
28809.361904,1184.329507,3404.947333,-74311.263306
28809.364466,-2960.823768,1480.411884,-76915.987999
28809.367027,-592.164754,3404.947333,-77528.864398
28809.369589,-7994.224174,-7105.977043,-78294.959896
28809.372151,1924.535449,-5181.441594,-74770.920605
28809.374713,1628.453072,740.205942,-74004.825107
28809.377275,-296.082377,6217.729913,-76149.892501
28809.379836,-1184.329507,2368.659014,-76609.549800
28809.382398,8290.306550,18801.230927,-71246.881314
28809.384960,1480.411884,16432.571912,-73851.606007
28809.387522,16580.613101,11843.295072,-76915.987999
28809.390084,3108.864956,12139.377449,-74158.044206
28809.392645,10658.965565,13323.706956,-73698.386908
28809.395207,2072.576638,9030.512492,-76149.892501
28809.397769,4737.318029,6809.894666,-75996.673402
28809.400331,3108.864956,5329.482782,-75690.235202
28809.402893,3108.864956,10066.800811,-72779.072310
28809.405454,6217.729913,10807.006753,-73391.948708
28809.408016,5921.647536,8438.347739,-76456.330700
28809.410578,4145.153275,5921.647536,-75383.797003
28809.413140,2368.659014,7550.100608,-72625.853210
28809.415702,6365.771101,10066.800811,-74924.139704
28809.418263,2960.823768,11843.295072,-75843.454302
28809.420825,7254.018232,13323.706956,-72779.072310
28809.423387,12731.542202,16876.695478,-72472.634111
28809.425949,10510.924376,17320.819043,-74770.920605
28809.428511,-888.247130,13619.789333,-75383.797003
28809.431072,1184.329507,8142.265362,-74158.044206
28809.433634,7550.100608,11843.295072,-74004.825107
28809.436196,-14508.036463,-2516.700203,-78754.617194
28809.438758,3849.070898,-6661.853478,-77222.426198
28809.441320,-7698.141797,-5329.482782,-75230.577904
28809.443881,10214.842000,5181.441594,-76609.549800
28809.446443,-6957.935855,4737.318029,-76456.330700
28809.449005,-592.164754,7550.100608,-74924.139704
28809.451567,-9622.677246,3108.864956,-75383.797003
28809.454129,-1776.494261,4145.153275,-74158.044206
28809.456690,-2516.700203,1776.494261,-75690.235202
28809.459252,7994.224174,5773.606348,-74158.044206
28809.461814,-3108.864956,3701.029710,-74924.139704
28809.464376,-9622.677246,5773.606348,-75383.797003
28809.466938,-1924.535449,1924.535449,-76149.892501
28809.469499,-9178.553681,444.123565,-75690.235202
28809.472061,3256.906145,3849.070898,-74924.139704
28809.474622,-6957.935855,1332.370696,-77222.426198
28809.477183,-740.205942,-3997.112087,-79061.055394
28809.479745,-2368.659014,-6069.688724,-76303.111601
28809.482306,2664.741391,1628.453072,-74311.263306
28809.484867,-3256.906145,5773.606348,-76456.330700
28809.487428,-5181.441594,888.247130,-77835.302597
28809.489990,13619.789333,19245.354492,-71553.319513
28809.492551,-1332.370696,14952.160028,-73391.948708
28809.495112,23834.631332,14656.077652,-75537.016103
28809.497674,-2368.659014,9622.677246,-74770.920605
28809.500235,14952.160028,14508.036463,-72319.415011
28809.502796,-888.247130,7698.141797,-75077.358804
28809.505357,2516.700203,7105.977043,-75996.673402
28809.507919,3256.906145,6957.935855,-75843.454302
28809.510480,4293.194464,7105.977043,-75537.016103
28809.513041,7254.018232,11991.336260,-75996.673402
28809.515603,7105.977043,5921.647536,-76456.330700
28809.518164,-1480.411884,7550.100608,-75996.673402
28809.520725,9178.553681,9178.553681,-72779.072310
28809.523286,2220.617826,8734.430116,-76456.330700
28809.525848,7698.141797,11103.089130,-75843.454302
28809.528409,9622.677246,12435.459826,-73391.948708
28809.530970,10658.965565,17172.777854,-71400.100414
28809.533532,10510.924376,18357.107362,-73851.606007
28809.536093,-5181.441594,11547.212695,-75996.673402
28809.538654,8438.347739,8142.265362,-74158.044206
28809.541215,296.082377,11399.171507,-72472.634111
28809.543777,-9770.718434,-5181.441594,-79367.493593
28809.546338,-6513.812290,-7254.018232,-76149.892501
28809.548899,148.041188,-1184.329507,-73391.948708
28809.551460,5625.565159,4737.318029,-76915.987999
28809.554022,-3849.070898,5033.400406,-76303.111601
28809.556583,-4293.194464,7254.018232,-74311.263306
28809.559144,-5921.647536,3256.906145,-73698.386908
28809.561706,-1480.411884,3552.988522,-74617.701505
28809.564267,148.041188,3108.864956,-75690.235202
28809.566828,4885.359217,2368.659014,-77069.207099
28809.569389,1628.453072,6217.729913,-75690.235202
28809.571951,-1036.288319,4441.235652,-75537.016103
28809.574512,-9030.512492,444.123565,-76149.892501
28809.577073,-4145.153275,1776.494261,-74004.825107
28809.579634,-2664.741391,3701.029710,-74924.139704
28809.582196,-4885.359217,-592.164754,-77682.083497
28809.584757,-740.205942,-5625.565159,-78294.959896
28809.587318,2220.617826,-148.041188,-74004.825107
28809.589879,2220.617826,2960.823768,-75230.577904
28809.592440,-10807.006753,2960.823768,-78141.740796
28809.595002,8586.388927,4737.318029,-74924.139704
28809.597563,740.205942,17024.736666,-72625.853210
28809.600124,12879.583391,15248.242405,-75230.577904
28809.602685,10066.800811,15248.242405,-76303.111601
28809.605246,14211.954086,14656.077652,-72472.634111
28809.607808,-740.205942,10658.965565,-73085.510509
28809.610369,3256.906145,9178.553681,-75077.358804
28809.612930,2664.741391,6513.812290,-76149.892501
28809.615491,6217.729913,7994.224174,-75383.797003
28809.618052,2220.617826,7550.100608,-76303.111601
28809.620614,8882.471304,12139.377449,-75383.797003
28809.623175,3552.988522,5477.523971,-76149.892501
28809.625736,0.000000,8882.471304,-73085.510509
28809.628297,6217.729913,11103.089130,-74004.825107
28809.630858,3108.864956,8438.347739,-77069.207099
28809.633420,12287.418637,14211.954086,-75230.577904
28809.635981,8142.265362,14359.995275,-73391.948708
28809.638542,9030.512492,19541.436869,-73085.510509
28809.641103,0.000000,12139.377449,-76303.111601
28809.643664,-148.041188,9326.594869,-74617.701505
28809.646226,6513.812290,11399.171507,-74004.825107
28809.648787,-14804.118840,-3108.864956,-79214.274493
28809.651348,3404.947333,-7105.977043,-78294.959896
28809.653909,-7402.059420,-5921.647536,-74770.920605
28809.656470,9622.677246,4293.194464,-75690.235202
28809.659032,-6809.894666,5921.647536,-77069.207099
28809.661593,-1480.411884,7550.100608,-75537.016103
28809.664154,-10066.800811,3256.906145,-74464.482406
28809.666715,-2072.576638,5033.400406,-74770.920605
28809.669276,-1924.535449,1036.288319,-77835.302597
28809.671838,8882.471304,3997.112087,-76762.768900
28809.674399,-3108.864956,10214.842000,-75077.358804
28809.676960,3997.112087,5181.441594,-75690.235202
28809.679520,-10955.047942,592.164754,-75537.016103
28809.682081,-2960.823768,1184.329507,-74158.044206
28809.684642,-3256.906145,2516.700203,-75383.797003
28809.687202,-5625.565159,-296.082377,-77835.302597
28809.689763,1776.494261,-6217.729913,-78601.398095
28809.692323,4145.153275,-1628.453072,-73851.606007
28809.694884,1184.329507,2516.700203,-74311.263306
28809.697445,-9474.636058,1628.453072,-77222.426198
28809.700005,13323.706956,7994.224174,-74770.920605
28809.702566,-2220.617826,17024.736666,-73085.510509
28809.705127,17468.860231,16136.489536,-75690.235202
28809.707687,8142.265362,14211.954086,-76149.892501
28809.710248,11103.089130,12435.459826,-72625.853210
28809.712809,1480.411884,11695.253884,-72625.853210
28809.715369,1480.411884,7698.141797,-75230.577904
28809.717930,1628.453072,5921.647536,-77222.426198
28809.720491,5477.523971,10510.924376,-73698.386908
28809.723051,8290.306550,9918.759623,-72932.291410
28809.725612,5477.523971,5773.606348,-76149.892501
28809.728173,1184.329507,7402.059420,-75537.016103
28809.730733,5181.441594,7846.182985,-74617.701505
28809.733294,3701.029710,11103.089130,-74158.044206
28809.735855,7846.182985,11547.212695,-76915.987999
28809.738415,8734.430116,11547.212695,-75690.235202
28809.740976,14063.912898,17320.819043,-71859.757712
28809.743536,8734.430116,19097.313304,-73085.510509
28809.746097,-4293.194464,12879.583391,-75230.577904
28809.748658,5033.400406,9918.759623,-74004.825107
28809.751218,1776.494261,13175.665768,-72779.072310
28809.753779,-9030.512492,-6661.853478,-79061.055394
28809.756340,740.205942,-8290.306550,-77988.521696
28809.758900,-4737.318029,-5329.482782,-75077.358804
28809.761461,6809.894666,4441.235652,-75843.454302
28809.764022,-6661.853478,5773.606348,-76456.330700
28809.766582,-5181.441594,7254.018232,-75230.577904
28809.769143,-8290.306550,3997.112087,-74158.044206
28809.771704,592.164754,4737.318029,-74158.044206
28809.774264,2812.782580,3404.947333,-77222.426198
28809.776825,2072.576638,740.205942,-77375.645298
28809.779386,1184.329507,9030.512492,-74004.825107
28809.781946,-7402.059420,2516.700203,-75996.673402
28809.784507,-6365.771101,296.082377,-76303.111601
28809.787067,-2812.782580,740.205942,-74004.825107
28809.789628,-4589.276840,2220.617826,-75230.577904
28809.792189,-2072.576638,-1332.370696,-77988.521696
28809.794749,2368.659014,-4441.235652,-77682.083497
28809.797310,2220.617826,592.164754,-74464.482406
28809.799871,-296.082377,3701.029710,-74924.139704
28809.802431,-13619.789333,-2368.659014,-77528.864398
28809.804992,14952.160028,17320.819043,-72625.853210
28809.807553,-3997.112087,17468.860231,-72472.634111
28809.810113,26795.455100,17616.901420,-76149.892501
28809.812674,-1628.453072,11843.295072,-75383.797003
28809.815234,15692.365970,14359.995275,-72012.976812
28809.817795,-2664.741391,8734.430116,-73698.386908
28809.820356,3552.988522,8882.471304,-74924.139704
28809.822916,888.247130,6513.812290,-76915.987999
28809.825477,9474.636058,9030.512492,-74158.044206
28809.828038,2812.782580,8882.471304,-74158.044206
28809.830598,9030.512492,6365.771101,-75690.235202
28809.833159,-2960.823768,4441.235652,-76303.111601
28809.835720,7550.100608,11991.336260,-71859.757712
28809.838280,1628.453072,10510.924376,-74617.701505
28809.840841,13175.665768,13175.665768,-75996.673402
28809.843401,9474.636058,13471.748144,-73545.167808
28809.845962,9030.512492,18505.148550,-71553.319513
28809.848523,2516.700203,15396.283594,-75996.673402
28809.851083,-4885.359217,11103.089130,-75383.797003
28809.853644,14211.954086,15100.201217,-72472.634111
28809.856205,-17320.819043,3108.864956,-75230.577904
28809.858765,8882.471304,-6365.771101,-78141.740796
28809.861326,-13027.624579,-9474.636058,-75537.016103
28809.863887,7402.059420,1628.453072,-74924.139704
28809.866447,-8882.471304,5033.400406,-76915.987999
28809.869008,1332.370696,6957.935855,-76456.330700
28809.871568,-9474.636058,5773.606348,-74464.482406
28809.874129,-444.123565,4885.359217,-72932.291410
28809.876690,-2516.700203,3108.864956,-75383.797003
28809.879250,5329.482782,1776.494261,-76303.111601
28809.881782,-2516.700203,5477.523971,-75996.673402
28809.884314,3552.988522,7254.018232,-74464.482406
28809.886845,-10066.800811,-888.247130,-76609.549800
28809.889377,-4145.153275,1332.370696,-74617.701505
28809.891908,-7698.141797,1776.494261,-74617.701505
28809.894440,-3552.988522,-592.164754,-77222.426198
28809.896971,3997.112087,-3997.112087,-78907.836294
28809.899503,3849.070898,-1776.494261,-75843.454302
28809.902034,2960.823768,2664.741391,-74004.825107
28809.904566,-14359.995275,-1924.535449,-76609.549800
28809.907098,11103.089130,9178.553681,-74770.920605
28809.909629,-1924.535449,18061.024985,-73391.948708
28809.912161,20281.642811,17616.901420,-76149.892501
28809.914692,8438.347739,15100.201217,-75843.454302
28809.917224,12583.501014,13767.830521,-73085.510509
28809.919755,296.082377,9918.759623,-73545.167808
28809.922287,2220.617826,8734.430116,-75230.577904
28809.924818,1480.411884,6365.771101,-77835.302597
28809.927350,6809.894666,7994.224174,-75690.235202
28809.929882,9326.594869,10807.006753,-72779.072310
28809.932413,3701.029710,8142.265362,-73698.386908
28809.934945,3256.906145,6957.935855,-75537.016103
28809.937476,1332.370696,8882.471304,-73391.948708
28809.940008,3997.112087,11991.336260,-74311.263306
28809.942539,12583.501014,13767.830521,-76456.330700
28809.945071,10362.883188,12583.501014,-75230.577904
28809.947602,15248.242405,18505.148550,-72012.976812
28809.950134,-2960.823768,13027.624579,-75077.358804
28809.952666,1332.370696,11399.171507,-74924.139704
28809.955197,4885.359217,13175.665768,-73391.948708
28809.957729,-10658.965565,6069.688724,-75690.235202
28809.960260,3552.988522,-8586.388927,-77988.521696
28809.962792,-7402.059420,-7402.059420,-75383.797003
28809.965323,4737.318029,-1480.411884,-74158.044206
28809.967855,-6809.894666,5033.400406,-75843.454302
28809.970386,-148.041188,6217.729913,-75843.454302
28809.972918,-12139.377449,6661.853478,-74004.825107
28809.975450,-1924.535449,4441.235652,-73391.948708
28809.977981,-148.041188,296.082377,-76915.987999
28809.980513,5329.482782,3849.070898,-76915.987999
28809.983049,6661.853478,4441.235652,-74617.701505
28809.985586,-5181.441594,3701.029710,-75843.454302
28809.988123,-6957.935855,2072.576638,-76456.330700
28809.990660,-6957.935855,-1184.329507,-75537.016103
28809.993197,-3997.112087,1332.370696,-75077.358804
28809.995734,-3552.988522,-592.164754,-76762.768900
28809.998270,4145.153275,-3404.947333,-78601.398095
28810.000807,4589.276840,740.205942,-76149.892501
28810.003344,-3404.947333,1628.453072,-75077.358804
28810.005881,-11399.171507,-2220.617826,-77988.521696
28810.008418,7994.224174,15248.242405,-72779.072310
28810.010955,740.205942,20281.642811,-73085.510509
28810.013491,25018.960840,17764.942608,-76609.549800
28810.016028,2960.823768,13619.789333,-74770.920605
28810.018565,13471.748144,14359.995275,-72472.634111
28810.021102,-2220.617826,5773.606348,-75383.797003
28810.023639,888.247130,6957.935855,-75996.673402
28810.026176,3849.070898,9326.594869,-77069.207099
28810.028712,11695.253884,9918.759623,-75537.016103
28810.031249,3849.070898,7402.059420,-74770.920605
28810.033786,6365.771101,7105.977043,-74770.920605
28810.036323,-1480.411884,5625.565159,-74924.139704
28810.038860,3404.947333,12287.418637,-73238.729609
28810.041397,9770.718434,14359.995275,-75383.797003
28810.043933,10362.883188,12287.418637,-75230.577904
28810.046470,16284.530724,16432.571912,-73085.510509
28810.049007,5329.482782,16432.571912,-72472.634111
28810.051544,-2664.741391,11843.295072,-74770.920605
28810.054081,2516.700203,11103.089130,-74004.825107
28810.056617,1184.329507,15396.283594,-73085.510509
28810.059154,2072.576638,-5329.482782,-78448.178995
28810.061691,-4737.318029,-9326.594869,-77682.083497
28810.064228,1332.370696,-4145.153275,-74770.920605
28810.066765,4885.359217,3108.864956,-75383.797003
28810.069302,-5625.565159,5921.647536,-76456.330700
28810.071838,-5625.565159,7402.059420,-75843.454302
28810.074375,-8734.430116,3997.112087,-74158.044206
28810.076912,4145.153275,2960.823768,-74464.482406
28810.079449,444.123565,444.123565,-78448.178995
28810.081986,-296.082377,5477.523971,-76149.892501
28810.084528,6217.729913,8586.388927,-74617.701505
28810.087069,-9030.512492,1776.494261,-76915.987999
28810.089611,-4293.194464,740.205942,-76149.892501
28810.092153,-11251.130318,-1776.494261,-75383.797003
28810.094694,740.205942,296.082377,-76149.892501
28810.097236,-3256.906145,-3849.070898,-78448.178995
28810.099778,10658.965565,1036.288319,-76456.330700
28810.102320,740.205942,1924.535449,-74004.825107
28810.104861,-15396.283594,-2516.700203,-75996.673402
28810.107403,10066.800811,2960.823768,-75996.673402
28810.109945,-2960.823768,18209.066173,-73085.510509
28810.112487,19541.436869,18801.230927,-74770.920605
28810.115028,10658.965565,16432.571912,-76303.111601
28810.117570,12879.583391,13619.789333,-73545.167808
28810.120112,-296.082377,9030.512492,-73085.510509
28810.122654,2220.617826,7402.059420,-75077.358804
28810.125195,-2220.617826,7698.141797,-77835.302597
28810.127737,8882.471304,10214.842000,-76149.892501
28810.130279,10807.006753,10362.883188,-73085.510509
28810.132821,2664.741391,5181.441594,-75383.797003
28810.135362,6513.812290,8438.347739,-74924.139704
28810.137904,444.123565,7105.977043,-73698.386908
28810.140446,4737.318029,13619.789333,-74464.482406
28810.142988,11991.336260,14804.118840,-76149.892501
28810.145529,13619.789333,14211.954086,-74158.044206
28810.148071,13471.748144,17912.983796,-71553.319513
28810.150613,-4293.194464,11399.171507,-74311.263306
28810.153155,3552.988522,9622.677246,-75996.673402
28810.155696,592.164754,16136.489536,-72932.291410
28810.158238,-10066.800811,-1480.411884,-78448.178995
28810.160780,1924.535449,-6661.853478,-77988.521696
28810.163322,1184.329507,-7105.977043,-74770.920605
28810.165867,5921.647536,2812.782580,-74617.701505
28810.168412,-5625.565159,5625.565159,-77528.864398
28810.170957,-6809.894666,8290.306550,-75537.016103
28810.173502,-9474.636058,5329.482782,-74158.044206
28810.176047,-1184.329507,5477.523971,-73545.167808
28810.178592,4145.153275,4293.194464,-75843.454302
28810.181137,-444.123565,-2220.617826,-79214.274493
28810.183682,-4293.194464,7846.182985,-74924.139704
28810.186227,-740.205942,4293.194464,-74464.482406
28810.188772,-10214.842000,-2516.700203,-77222.426198
28810.191317,-5181.441594,296.082377,-74464.482406
28810.193862,-9178.553681,-1628.453072,-74617.701505
28810.196407,6365.771101,-2516.700203,-77835.302597
28810.198952,4145.153275,1184.329507,-76762.768900
28810.201497,5033.400406,2072.576638,-74464.482406
28810.204042,-17912.983796,-6513.812290,-77069.207099
28810.206587,13471.748144,6957.935855,-74311.263306
28810.209132,-6217.729913,16284.530724,-74464.482406
28810.211677,23538.548956,19097.313304,-75230.577904
28810.214222,8586.388927,16580.613101,-74924.139704
28810.216767,15544.324782,14063.912898,-72779.072310
28810.219312,-2220.617826,7254.018232,-73391.948708
28810.221857,-2368.659014,6069.688724,-74311.263306
28810.224402,4589.276840,8734.430116,-77682.083497
28810.226947,11399.171507,10214.842000,-75843.454302
28810.229492,5033.400406,7846.182985,-73698.386908
28810.232037,7994.224174,6809.894666,-73085.510509
28810.234582,-1480.411884,3552.988522,-74924.139704
28810.237127,740.205942,10955.047942,-73085.510509
28810.239672,6661.853478,14063.912898,-74311.263306
28810.242217,10510.924376,14063.912898,-76456.330700
28810.244762,17764.942608,16876.695478,-72779.072310
28810.247307,4293.194464,15840.407159,-71706.538613
28810.249852,-444.123565,10955.047942,-74158.044206
28810.252397,3108.864956,12139.377449,-73851.606007
28810.254942,-5477.523971,15544.324782,-72779.072310
28810.257487,-3404.947333,-2960.823768,-77988.521696
28810.260032,-592.164754,-7846.182985,-77682.083497
28810.262577,-1036.288319,-6513.812290,-75843.454302
28810.265123,1184.329507,2664.741391,-75077.358804
28810.267671,-1924.535449,5033.400406,-76915.987999
28810.270219,-10362.883188,8438.347739,-75996.673402
28810.272768,-6217.729913,5329.482782,-73698.386908
28810.275316,1184.329507,3701.029710,-73851.606007
28810.277865,1036.288319,296.082377,-77682.083497
28810.280413,1184.329507,4885.359217,-76456.330700
28810.282962,2664.741391,9474.636058,-74004.825107
28810.285510,-6069.688724,888.247130,-75690.235202
28810.288059,-9474.636058,-592.164754,-75537.016103
28810.290607,-10955.047942,-2960.823768,-74770.920605
28810.293155,-740.205942,-296.082377,-75690.235202
28810.295704,7698.141797,0.000000,-76915.987999
28810.298252,1924.535449,592.164754,-76456.330700
28810.300801,888.247130,1480.411884,-74311.263306
28810.303349,-16580.613101,-7994.224174,-76149.892501
28810.305898,7402.059420,15248.242405,-74158.044206
28810.308446,-296.082377,18949.272115,-73085.510509
28810.310995,27535.661042,22650.301825,-75077.358804
28810.313543,5625.565159,14804.118840,-74464.482406
28810.316091,9178.553681,12287.418637,-72932.291410
28810.318640,-1924.535449,2812.782580,-74464.482406
28810.321188,-1480.411884,4885.359217,-75230.577904
28810.323737,6513.812290,10066.800811,-77835.302597
28810.326285,7550.100608,7402.059420,-76609.549800
28810.328834,6069.688724,8734.430116,-72779.072310
28810.331382,9622.677246,4441.235652,-72932.291410
28810.333931,-4737.318029,3701.029710,-75690.235202
28810.336479,4737.318029,14063.912898,-73851.606007
28810.339027,5921.647536,16284.530724,-74617.701505
28810.341576,18505.148550,17468.860231,-75230.577904
28810.344124,12435.459826,15988.448347,-72779.072310
28810.346673,2072.576638,11103.089130,-73698.386908
28810.349221,2072.576638,9178.553681,-75077.358804
28810.351770,-444.123565,16876.695478,-73238.729609
28810.354318,-11251.130318,2960.823768,-77528.864398
28810.356867,4293.194464,-5329.482782,-77835.302597
28810.359415,-4589.276840,-9622.677246,-76915.987999
28810.361963,10807.006753,-592.164754,-74617.701505
28810.364512,-5181.441594,3404.947333,-76456.330700
28810.367060,-2220.617826,7105.977043,-76609.549800
28810.369612,-7846.182985,6809.894666,-74770.920605
28810.372163,-5625.565159,5329.482782,-72779.072310
28810.374715,5625.565159,4737.318029,-74770.920605
28810.377266,1036.288319,-2072.576638,-77988.521696
28810.379818,1036.288319,8586.388927,-75996.673402
28810.382369,0.000000,4441.235652,-75996.673402
28810.384921,-9770.718434,296.082377,-77375.645298
28810.387472,-7402.059420,-2368.659014,-75537.016103
28810.390024,-10955.047942,-2516.700203,-74617.701505
28810.392575,13175.665768,-888.247130,-77528.864398
28810.395127,1480.411884,2664.741391,-76456.330700
28810.397678,2072.576638,1776.494261,-75383.797003
28810.400230,-16284.530724,-6365.771101,-76609.549800
28810.402781,10510.924376,4589.276840,-74464.482406
28810.405333,-7254.018232,14063.912898,-74924.139704
28810.407884,23982.672521,21021.848753,-74158.044206
28810.410436,3552.988522,15544.324782,-75230.577904
28810.412987,15544.324782,13323.706956,-73391.948708
28810.415539,-4145.153275,3701.029710,-74158.044206
28810.418090,-1480.411884,3552.988522,-74770.920605
28810.420642,-1628.453072,11103.089130,-76303.111601
28810.423193,13915.871710,12435.459826,-76762.768900
28810.425745,4885.359217,6957.935855,-75537.016103
28810.428297,11251.130318,4737.318029,-74311.263306
28810.430848,2516.700203,4145.153275,-75077.358804
28810.433400,296.082377,10066.800811,-74924.139704
28810.435951,8290.306550,19245.354492,-74770.920605
28810.438503,14359.995275,16728.654289,-75537.016103
28810.441054,12879.583391,16580.613101,-72932.291410
28810.443606,1924.535449,11103.089130,-73085.510509
28810.446157,-2072.576638,7550.100608,-74770.920605
28810.448709,3849.070898,17468.860231,-73698.386908
28810.451260,-15248.242405,2812.782580,-77375.645298
28810.453812,8734.430116,-2368.659014,-77222.426198
28810.456363,-10807.006753,-11695.253884,-77528.864398
28810.458915,16728.654289,888.247130,-75230.577904
28810.461466,-9178.553681,4441.235652,-75230.577904
28810.464018,-2812.782580,7698.141797,-75537.016103
28810.466569,-11103.089130,7105.977043,-75383.797003
28810.469121,-1480.411884,3849.070898,-74464.482406
28810.471646,-888.247130,1480.411884,-77069.207099
28810.474171,3997.112087,4589.276840,-75843.454302
28810.476696,4589.276840,9030.512492,-75843.454302
28810.479221,-3108.864956,5921.647536,-75537.016103
28810.481747,-9622.677246,-740.205942,-75077.358804
28810.484272,-10807.006753,-2960.823768,-75230.577904
28810.486797,-2960.823768,-2516.700203,-76609.549800
28810.489322,9622.677246,148.041188,-76456.330700
28810.491848,2220.617826,1480.411884,-77682.083497
28810.494373,3256.906145,1036.288319,-75690.235202
28810.496898,-16728.654289,-8734.430116,-76915.987999
28810.499423,11695.253884,9770.718434,-73238.729609
28810.501948,-2220.617826,17172.777854,-74464.482406
28810.504474,29460.196492,22354.219448,-74770.920605
28810.506999,3552.988522,14359.995275,-74617.701505
28810.509524,12435.459826,12435.459826,-73391.948708
28810.512049,-2664.741391,2516.700203,-74617.701505
28810.514574,-2812.782580,3849.070898,-74617.701505
28810.517100,4441.235652,12435.459826,-75996.673402
28810.519625,10807.006753,9326.594869,-76609.549800
28810.522150,4145.153275,5625.565159,-75230.577904
28810.524675,12287.418637,6809.894666,-72779.072310
28810.527201,-6217.729913,2516.700203,-75230.577904
28810.529726,7550.100608,15396.283594,-73698.386908
28810.532251,4737.318029,16728.654289,-76149.892501
28810.534776,18801.230927,18357.107362,-75843.454302
28810.537301,11695.253884,16580.613101,-72932.291410
28810.539827,2516.700203,10510.924376,-74004.825107
28810.542352,3108.864956,9770.718434,-74464.482406
28810.544877,-6217.729913,15544.324782,-74158.044206
28810.547402,-5477.523971,-1036.288319,-78294.959896
28810.549927,-1628.453072,-5329.482782,-76456.330700
28810.552453,-1184.329507,-6365.771101,-75537.016103
28810.554978,11103.089130,1924.535449,-75230.577904
28810.557503,-5329.482782,5033.400406,-75537.016103
28810.560028,-6217.729913,9030.512492,-75996.673402
28810.562554,-4885.359217,5921.647536,-74158.044206
28810.565079,1036.288319,2220.617826,-74158.044206
28810.567604,-3849.070898,2072.576638,-76303.111601
28810.570129,9326.594869,6957.935855,-74311.263306
28810.572662,-2664.741391,6809.894666,-74617.701505
28810.575195,-3552.988522,5033.400406,-75077.358804
28810.577728,-14063.912898,-3997.112087,-76609.549800
28810.580261,-5329.482782,-4145.153275,-75537.016103
28810.582794,-4885.359217,-2812.782580,-77222.426198
28810.585327,9326.594869,3701.029710,-76609.549800
28810.587859,2664.741391,1036.288319,-75996.673402
28810.590392,-10510.924376,-2664.741391,-74924.139704
28810.592925,2812.782580,-3997.112087,-75996.673402
28810.595458,-6957.935855,13619.789333,-74464.482406
28810.597991,15100.201217,20577.725188,-75077.358804
28810.600524,18209.066173,21465.972318,-74004.825107
28810.603057,13915.871710,14804.118840,-73238.729609
28810.605590,-1776.494261,3552.988522,-75383.797003
28810.608123,-3108.864956,3404.947333,-74617.701505
28810.610655,-2812.782580,9178.553681,-75077.358804
28810.613188,10510.924376,14656.077652,-77682.083497
28810.615721,6957.935855,8438.347739,-76456.330700
28810.618254,11251.130318,2812.782580,-74617.701505
28810.620787,4589.276840,4737.318029,-72625.853210
28810.623320,-1480.411884,7254.018232,-74617.701505
28810.625853,5921.647536,18209.066173,-75383.797003
28810.628386,13471.748144,19393.395680,-75690.235202
28810.630919,15988.448347,19097.313304,-73545.167808
28810.633452,3256.906145,10510.924376,-74004.825107
28810.635984,-1924.535449,6809.894666,-74158.044206
28810.638517,6661.853478,15840.407159,-73851.606007
28810.641050,-18801.230927,5329.482782,-76609.549800
28810.643583,9030.512492,-1480.411884,-77222.426198
28810.646116,-8438.347739,-9474.636058,-77528.864398
28810.648649,15988.448347,444.123565,-75690.235202
28810.651182,-7846.182985,2368.659014,-75690.235202
28810.653715,-1332.370696,8142.265362,-75996.673402
28810.656248,-11103.089130,7846.182985,-75537.016103
28810.658780,-5329.482782,6957.935855,-74004.825107
28810.661313,148.041188,1184.329507,-77069.207099
28810.663846,2516.700203,3256.906145,-76609.549800
28810.666379,5477.523971,9770.718434,-73851.606007
28810.668912,-7846.182985,3256.906145,-74158.044206
28810.671445,-8734.430116,-444.123565,-75077.358804
28810.673988,-13767.830521,-5921.647536,-75690.235202
28810.676527,0.000000,-1924.535449,-75537.016103
28810.679066,8586.388927,1184.329507,-75843.454302
28810.681605,6069.688724,2516.700203,-77222.426198
28810.684143,-3997.112087,-2368.659014,-75843.454302
28810.686682,-740.205942,-6217.729913,-75537.016103
28810.689221,-2368.659014,14063.912898,-73545.167808
28810.691760,6069.688724,19097.313304,-75230.577904
28810.694299,23686.590144,23982.672521,-73238.729609
28810.696838,9178.553681,16284.530724,-73391.948708
28810.699377,6809.894666,7994.224174,-73698.386908
28810.701916,-2812.782580,148.041188,-74464.482406
28810.704455,-5033.400406,5773.606348,-74770.920605
28810.706994,5181.441594,13323.706956,-77682.083497
28810.709533,12879.583391,8586.388927,-75843.454302
28810.712072,5477.523971,3849.070898,-73238.729609
28810.714611,7846.182985,2960.823768,-73391.948708
28810.717150,-1480.411884,7105.977043,-74311.263306
28810.719688,3552.988522,16728.654289,-74311.263306
28810.722227,12139.377449,20429.683999,-75537.016103
28810.724766,14656.077652,19985.560434,-74311.263306
28810.727305,5773.606348,9326.594869,-74004.825107
28810.729844,444.123565,6809.894666,-73391.948708
28810.732383,5477.523971,14804.118840,-72472.634111
28810.734922,-19393.395680,2664.741391,-77069.207099
28810.737461,6365.771101,-444.123565,-76762.768900
28810.740000,-10066.800811,-8734.430116,-76303.111601
28810.742539,14211.954086,-740.205942,-75843.454302
28810.745078,-4737.318029,2368.659014,-75690.235202
28810.747617,-4145.153275,8438.347739,-75230.577904
28810.750156,-10658.965565,7994.224174,-75383.797003
28810.752694,-4737.318029,5329.482782,-75383.797003
28810.755233,0.000000,4145.153275,-75537.016103
28810.757772,10510.924376,2516.700203,-76456.330700
28810.760311,-2812.782580,6661.853478,-75690.235202
28810.762850,2812.782580,7402.059420,-74158.044206
28810.765389,-13767.830521,-2664.741391,-77528.864398
28810.767928,-6513.812290,-4737.318029,-75230.577904
28810.770467,-3552.988522,-2220.617826,-74924.139704
28810.773006,11843.295072,3701.029710,-76456.330700
28810.775550,4293.194464,3997.112087,-76149.892501
28810.778094,-9622.677246,-3701.029710,-75996.673402
28810.780639,3997.112087,-6069.688724,-75843.454302
28810.783183,-4737.318029,14063.912898,-73698.386908
28810.785727,6661.853478,18505.148550,-75843.454302
28810.788272,22354.219448,21762.054695,-74311.263306
28810.790816,15100.201217,17320.819043,-73085.510509
28810.793360,2220.617826,2368.659014,-75077.358804
28810.795904,-2220.617826,2072.576638,-73698.386908
28810.798449,-2812.782580,7550.100608,-74158.044206
28810.800993,5477.523971,15396.283594,-75996.673402
28810.803537,6957.935855,8438.347739,-75996.673402
28810.806082,10214.842000,3849.070898,-74004.825107
28810.808626,6513.812290,4589.276840,-73391.948708
28810.811170,1924.535449,10214.842000,-74617.701505
28810.813714,7254.018232,18801.230927,-75383.797003
28810.816259,10510.924376,20429.683999,-75690.235202
28810.818803,13619.789333,18653.189738,-74158.044206
28810.821347,1628.453072,9178.553681,-73851.606007
28810.823892,4885.359217,9622.677246,-73545.167808
28810.826436,148.041188,13471.748144,-73545.167808
28810.828980,-12731.542202,592.164754,-77375.645298
28810.831524,-2368.659014,-4441.235652,-76915.987999
28810.834069,-2664.741391,-5773.606348,-75537.016103
28810.836613,10510.924376,296.082377,-75843.454302
28810.839157,-3552.988522,5773.606348,-75690.235202
28810.841702,-3108.864956,9622.677246,-75690.235202
28810.844246,-12435.459826,6809.894666,-75077.358804
28810.846790,-5921.647536,4885.359217,-74924.139704
28810.849334,6365.771101,5181.441594,-74924.139704
28810.851879,592.164754,4145.153275,-75077.358804
28810.854423,1332.370696,8438.347739,-74770.920605
28810.856967,-4737.318029,2664.741391,-76149.892501
28810.859512,-17468.860231,-5625.565159,-76609.549800
28810.862056,-3404.947333,-3108.864956,-75690.235202
28810.864600,5181.441594,-592.164754,-76915.987999
28810.867144,7698.141797,3108.864956,-76456.330700
28810.869689,-2072.576638,-1184.329507,-76609.549800
28810.872233,-7105.977043,-8586.388927,-76609.549800
28810.874777,7402.059420,9178.553681,-72472.634111
28810.877297,-12731.542202,15100.201217,-74464.482406
28810.879818,28868.031738,23834.631332,-74464.482406
28810.882338,2960.823768,16876.695478,-73085.510509
28810.884858,15544.324782,12435.459826,-72932.291410
28810.887378,-2812.782580,-3108.864956,-75537.016103
28810.889898,-888.247130,3552.988522,-74158.044206
28810.892418,296.082377,11991.336260,-77069.207099
28810.894939,4885.359217,11103.089130,-77988.521696
28810.897459,14656.077652,5921.647536,-75690.235202
28810.899979,7402.059420,2812.782580,-72932.291410
28810.902499,592.164754,6217.729913,-74464.482406
28810.905019,6661.853478,16136.489536,-75077.358804
28810.907539,8882.471304,21465.972318,-75537.016103
28810.910060,12583.501014,20725.766376,-73851.606007
28810.912580,5329.482782,11695.253884,-74311.263306
28810.915100,1924.535449,6069.688724,-74158.044206
28810.917620,7994.224174,13915.871710,-72932.291410
28810.920140,-18949.272115,-148.041188,-77375.645298
28810.922660,888.247130,-1332.370696,-77682.083497
28810.925181,-7994.224174,-7105.977043,-75690.235202
28810.927701,11695.253884,-148.041188,-76149.892501
28810.930221,-2072.576638,3552.988522,-75690.235202
28810.932741,-1628.453072,8734.430116,-75077.358804
28810.935261,-7846.182985,7402.059420,-75383.797003
28810.937781,-4885.359217,7402.059420,-74158.044206
28810.940302,-2072.576638,2072.576638,-75537.016103
28810.942822,5329.482782,3404.947333,-76303.111601
28810.945342,-444.123565,7846.182985,-74464.482406
28810.947862,-888.247130,4293.194464,-75996.673402
28810.950382,-13767.830521,-2812.782580,-76149.892501
28810.952902,-9178.553681,-3997.112087,-75077.358804
28810.955423,-1924.535449,-2220.617826,-76303.111601
28810.957943,11103.089130,4441.235652,-76303.111601
28810.960463,888.247130,2220.617826,-76149.892501
28810.962983,-4441.235652,-6069.688724,-75537.016103
28810.965503,8586.388927,7550.100608,-73391.948708
28810.968023,-10955.047942,14656.077652,-74158.044206
