#time,accel_x,accel_y,accel_z
26317.752174,1776.494261,5921.647536,-74770.920605
26317.754680,1924.535449,6513.812290,-75230.577904
26317.757185,1776.494261,6809.894666,-74924.139704
26317.759691,2072.576638,5921.647536,-74617.701505
26317.762196,1036.288319,6217.729913,-75690.235202
26317.764702,2220.617826,6661.853478,-74770.920605
26317.767207,5477.523971,8438.347739,-74464.482406
26317.769713,1480.411884,3849.070898,-75690.235202
26317.772218,8290.306550,9178.553681,-73391.948708
26317.774724,-592.164754,4737.318029,-75077.358804
26317.777229,7550.100608,8142.265362,-75230.577904
26317.779734,-1924.535449,7846.182985,-73698.386908
26317.782240,3849.070898,9178.553681,-75230.577904
26317.784745,888.247130,9622.677246,-75537.016103
26317.787251,7698.141797,8142.265362,-74924.139704
26317.789756,7105.977043,11991.336260,-74770.920605
26317.792262,12731.542202,14359.995275,-74158.044206
26317.794767,-6217.729913,13915.871710,-74464.482406
26317.797273,1332.370696,13175.665768,-75537.016103
26317.799778,-2220.617826,11399.171507,-75230.577904
26317.802284,-4293.194464,1628.453072,-75690.235202
26317.804789,1628.453072,-9622.677246,-76456.330700
26317.807295,3108.864956,-11695.253884,-76303.111601
26317.809800,-3701.029710,-7254.018232,-76456.330700
26317.812306,0.000000,9178.553681,-75843.454302
26317.814811,2072.576638,10807.006753,-77528.864398
26317.817317,1628.453072,4145.153275,-74617.701505
26317.819822,4737.318029,9918.759623,-71553.319513
26317.822340,-4737.318029,9178.553681,-75230.577904
26317.824857,444.123565,6217.729913,-78448.178995
26317.827375,-3108.864956,2812.782580,-78141.740796
26317.829892,-1776.494261,-4885.359217,-77222.426198
26317.832410,3108.864956,6513.812290,-74158.044206
26317.834927,3404.947333,6513.812290,-75843.454302
26317.837444,-888.247130,7254.018232,-74158.044206
26317.839962,-1924.535449,5033.400406,-74311.263306
26317.842479,-2960.823768,2812.782580,-76456.330700
26317.844997,-1924.535449,1036.288319,-77835.302597
26317.847514,2812.782580,4885.359217,-75537.016103
26317.850032,-1332.370696,148.041188,-76762.768900
26317.852549,6513.812290,5625.565159,-75077.358804
26317.855067,3404.947333,7994.224174,-74004.825107
26317.857584,-2220.617826,5921.647536,-75996.673402
26317.860101,-3256.906145,6661.853478,-75690.235202
26317.862619,-7698.141797,444.123565,-75230.577904
26317.865136,3552.988522,296.082377,-76609.549800
26317.867654,4737.318029,2812.782580,-75537.016103
26317.870171,1184.329507,5773.606348,-74617.701505
26317.872689,-13915.871710,888.247130,-75230.577904
26317.875206,17764.942608,6661.853478,-74617.701505
26317.877724,-12287.418637,7402.059420,-74617.701505
26317.880241,2368.659014,14656.077652,-75230.577904
26317.882758,10214.842000,6069.688724,-76303.111601
26317.885276,13175.665768,9918.759623,-75383.797003
26317.887793,-12139.377449,-592.164754,-72932.291410
26317.890311,11695.253884,3997.112087,-72779.072310
26317.892828,9918.759623,9770.718434,-76303.111601
26317.895346,148.041188,15100.201217,-74464.482406
26317.897863,592.164754,11399.171507,-73238.729609
26317.900381,-148.041188,3256.906145,-75537.016103
26317.902898,592.164754,6809.894666,-74770.920605
26317.905415,9474.636058,12879.583391,-72932.291410
26317.907933,11399.171507,11843.295072,-75383.797003
26317.910450,3849.070898,8882.471304,-77375.645298
26317.912968,740.205942,4737.318029,-73698.386908
26317.915485,-3552.988522,3997.112087,-72779.072310
26317.918003,4145.153275,5921.647536,-77682.083497
26317.920520,9178.553681,12879.583391,-75996.673402
26317.923019,10658.965565,12731.542202,-74464.482406
26317.925517,2368.659014,7846.182985,-74464.482406
26317.928016,5477.523971,5033.400406,-75843.454302
26317.930515,-2220.617826,3849.070898,-73085.510509
26317.933013,2516.700203,9770.718434,-74004.825107
26317.935512,3256.906145,8586.388927,-77682.083497
26317.938010,8438.347739,9326.594869,-74770.920605
26317.940509,6809.894666,5033.400406,-74464.482406
26317.943008,1776.494261,4885.359217,-75537.016103
26317.945506,4145.153275,9326.594869,-75690.235202
26317.948005,-296.082377,10658.965565,-75077.358804
26317.950503,3997.112087,7994.224174,-76149.892501
26317.953002,3256.906145,6809.894666,-75383.797003
26317.955501,6661.853478,7994.224174,-75537.016103
26317.957999,5773.606348,14211.954086,-74004.825107
26317.960498,7698.141797,15840.407159,-74464.482406
26317.962996,-5181.441594,9030.512492,-75077.358804
26317.965495,592.164754,3849.070898,-74770.920605
26317.967994,3997.112087,2664.741391,-74158.044206
26317.970492,13767.830521,11103.089130,-75537.016103
26317.972991,-740.205942,9622.677246,-76303.111601
26317.975490,11251.130318,9178.553681,-74770.920605
26317.977988,-3701.029710,6957.935855,-74004.825107
26317.980487,-18949.272115,-2812.782580,-75843.454302
26317.982985,4589.276840,3701.029710,-75230.577904
26317.985484,3256.906145,10807.006753,-77835.302597
26317.987983,15396.283594,12287.418637,-75537.016103
26317.990481,-3256.906145,-592.164754,-73698.386908
26317.992980,-1776.494261,-2664.741391,-75077.358804
26317.995478,-11103.089130,2812.782580,-74770.920605
26317.997977,296.082377,8586.388927,-75383.797003
26318.000476,888.247130,6513.812290,-78448.178995
26318.002974,3701.029710,3108.864956,-76915.987999
26318.005473,2812.782580,592.164754,-72932.291410
26318.007971,-2812.782580,592.164754,-75077.358804
26318.010470,-1184.329507,5181.441594,-77682.083497
26318.012969,-2220.617826,9918.759623,-76149.892501
26318.015467,5329.482782,11547.212695,-73698.386908
26318.017966,-3552.988522,2368.659014,-74770.920605
26318.020464,2072.576638,888.247130,-74464.482406
26318.022977,-5773.606348,1184.329507,-73545.167808
26318.025490,592.164754,8734.430116,-73085.510509
26318.028003,-3256.906145,7402.059420,-77069.207099
26318.030516,6217.729913,5625.565159,-76149.892501
26318.033029,-2664.741391,3849.070898,-72472.634111
26318.035542,592.164754,2812.782580,-74617.701505
26318.038055,-4589.276840,2368.659014,-76456.330700
26318.040568,2664.741391,6809.894666,-74004.825107
26318.043081,592.164754,4441.235652,-75077.358804
26318.045594,3849.070898,2960.823768,-76149.892501
26318.048107,-444.123565,3849.070898,-73851.606007
26318.050620,-6513.812290,3404.947333,-73698.386908
26318.053133,-5921.647536,2664.741391,-75690.235202
26318.055646,-3552.988522,2664.741391,-76456.330700
26318.058159,10658.965565,8882.471304,-76303.111601
26318.060672,-1036.288319,5921.647536,-75383.797003
26318.063185,-2220.617826,1184.329507,-75537.016103
26318.065698,7402.059420,3701.029710,-74158.044206
26318.068211,-5329.482782,5477.523971,-75077.358804
26318.070723,148.041188,7550.100608,-75690.235202
26318.073236,1332.370696,4885.359217,-75690.235202
26318.075749,16876.695478,10510.924376,-75537.016103
26318.078262,-11991.336260,3256.906145,-74004.825107
26318.080775,11399.171507,9030.512492,-74004.825107
26318.083288,14508.036463,14359.995275,-75230.577904
26318.085801,-444.123565,15544.324782,-74617.701505
26318.088314,1332.370696,10214.842000,-75230.577904
26318.090827,-888.247130,2072.576638,-76609.549800
26318.093340,1036.288319,2960.823768,-75230.577904
26318.095853,9474.636058,8438.347739,-74004.825107
26318.098366,8734.430116,10510.924376,-77222.426198
26318.100879,3108.864956,9770.718434,-75383.797003
26318.103403,592.164754,7550.100608,-72779.072310
26318.105928,-888.247130,6809.894666,-74617.701505
26318.108453,-2664.741391,8586.388927,-76609.549800
26318.110977,10214.842000,13175.665768,-76762.768900
26318.113502,9474.636058,11251.130318,-75690.235202
26318.116026,5773.606348,8438.347739,-74924.139704
26318.118551,-1036.288319,2072.576638,-74004.825107
26318.121075,740.205942,5033.400406,-73698.386908
26318.123600,1924.535449,8734.430116,-74770.920605
26318.126124,5329.482782,9622.677246,-75537.016103
26318.128649,9622.677246,10066.800811,-74464.482406
26318.131173,6513.812290,8290.306550,-73545.167808
26318.133698,3849.070898,7254.018232,-73851.606007
26318.136223,-3701.029710,5921.647536,-75996.673402
26318.138747,1184.329507,7846.182985,-74004.825107
26318.141272,2368.659014,9030.512492,-74158.044206
26318.143796,11695.253884,12435.459826,-75996.673402
26318.146321,9326.594869,13471.748144,-74770.920605
26318.148845,6217.729913,14804.118840,-74004.825107
26318.151370,-8142.265362,4737.318029,-75537.016103
26318.153894,-2664.741391,3997.112087,-75230.577904
26318.156419,8882.471304,7402.059420,-74004.825107
26318.158943,17764.942608,13027.624579,-75843.454302
26318.161468,2516.700203,5477.523971,-76456.330700
26318.163993,11695.253884,7105.977043,-73851.606007
26318.166517,-14508.036463,3849.070898,-74770.920605
26318.169042,-11695.253884,740.205942,-75537.016103
26318.171566,-740.205942,8290.306550,-75996.673402
26318.174091,13619.789333,9178.553681,-76762.768900
26318.176615,10807.006753,4885.359217,-75996.673402
26318.179140,-8142.265362,-3701.029710,-74158.044206
26318.181664,-9918.759623,-1036.288319,-76609.549800
26318.184189,-5921.647536,8142.265362,-75077.358804
26318.186713,1036.288319,10214.842000,-75996.673402
26318.189238,3997.112087,3108.864956,-77528.864398
26318.191763,3404.947333,1332.370696,-74924.139704
26318.194287,148.041188,740.205942,-72166.195912
26318.196812,-5329.482782,592.164754,-76303.111601
26318.199336,-2812.782580,8290.306550,-77682.083497
26318.201861,2664.741391,10510.924376,-73851.606007
26318.204367,5921.647536,4293.194464,-74617.701505
26318.206873,-3108.864956,1184.329507,-75843.454302
26318.209379,-2812.782580,5921.647536,-73698.386908
26318.211885,-4441.235652,3849.070898,-74311.263306
26318.214391,-1776.494261,12731.542202,-74004.825107
26318.216897,3552.988522,5181.441594,-76762.768900
26318.219403,2220.617826,4737.318029,-74158.044206
26318.221909,2368.659014,2072.576638,-72166.195912
26318.224415,-4145.153275,1184.329507,-76456.330700
26318.226921,1776.494261,4293.194464,-75996.673402
26318.229428,-3849.070898,3849.070898,-74617.701505
26318.231934,3701.029710,2220.617826,-77222.426198
26318.234440,-6217.729913,-444.123565,-77222.426198
26318.236946,-2664.741391,1480.411884,-75383.797003
26318.239452,-4145.153275,2516.700203,-75537.016103
26318.241958,6661.853478,9474.636058,-75690.235202
26318.244464,0.000000,7994.224174,-74617.701505
26318.246970,-2812.782580,2960.823768,-74924.139704
26318.249476,8142.265362,2664.741391,-74617.701505
26318.251982,-5921.647536,3849.070898,-75690.235202
26318.254488,5181.441594,10214.842000,-75077.358804
26318.256994,-6957.935855,2072.576638,-77069.207099
26318.259500,23094.425390,12435.459826,-75690.235202
26318.262006,-16580.613101,2220.617826,-73698.386908
26318.264513,12731.542202,8882.471304,-73698.386908
26318.267019,14063.912898,10362.883188,-75383.797003
26318.269525,6513.812290,17320.819043,-75077.358804
26318.272031,3552.988522,11251.130318,-74004.825107
26318.274537,-5477.523971,1628.453072,-76915.987999
26318.277043,0.000000,444.123565,-76762.768900
26318.279549,10510.924376,6661.853478,-73085.510509
26318.282055,7994.224174,10955.047942,-76456.330700
26318.284561,8586.388927,11547.212695,-76609.549800
26318.287067,1480.411884,11103.089130,-73851.606007
26318.289573,-2960.823768,7254.018232,-73085.510509
26318.292079,-296.082377,7254.018232,-77069.207099
26318.294585,7846.182985,10362.883188,-75077.358804
26318.297092,9918.759623,12583.501014,-72166.195912
26318.299598,5033.400406,7402.059420,-73545.167808
26318.302104,-1036.288319,3108.864956,-75537.016103
26318.304624,2220.617826,5921.647536,-74158.044206
26318.307144,2368.659014,7402.059420,-73851.606007
26318.309664,2960.823768,10510.924376,-75383.797003
26318.312185,11843.295072,13175.665768,-76609.549800
26318.314705,3701.029710,7698.141797,-74924.139704
26318.317225,5033.400406,4441.235652,-74924.139704
26318.319745,-1628.453072,4293.194464,-75230.577904
26318.322265,0.000000,8734.430116,-75077.358804
26318.324786,7846.182985,14211.954086,-75383.797003
26318.327306,12139.377449,16432.571912,-75537.016103
26318.329826,8142.265362,15692.365970,-75383.797003
26318.332346,-1924.535449,3849.070898,-74158.044206
26318.334866,-4885.359217,1184.329507,-74770.920605
26318.337387,12731.542202,9918.759623,-74770.920605
26318.339907,7550.100608,14508.036463,-75077.358804
26318.342427,7105.977043,9030.512492,-76762.768900
26318.344947,7254.018232,8438.347739,-73545.167808
26318.347468,-9918.759623,2960.823768,-73391.948708
26318.349988,-10955.047942,444.123565,-74311.263306
26318.352508,888.247130,7254.018232,-77069.207099
26318.355028,18949.272115,10510.924376,-76609.549800
26318.357548,888.247130,2812.782580,-75383.797003
26318.360069,-888.247130,-5477.523971,-76303.111601
26318.362589,-11251.130318,-888.247130,-75996.673402
26318.365109,-5921.647536,8142.265362,-74004.825107
26318.367629,592.164754,12139.377449,-75843.454302
26318.370149,3256.906145,5181.441594,-79061.055394
26318.372670,-444.123565,444.123565,-74004.825107
26318.375190,148.041188,1036.288319,-72166.195912
26318.377710,-8734.430116,296.082377,-77069.207099
26318.380230,1184.329507,8586.388927,-76915.987999
26318.382750,4145.153275,7846.182985,-74464.482406
26318.385271,7550.100608,7402.059420,-73545.167808
26318.387791,-5181.441594,-444.123565,-77375.645298
26318.390311,-444.123565,3701.029710,-75537.016103
26318.392831,-1184.329507,8438.347739,-73698.386908
26318.395352,-148.041188,8142.265362,-76456.330700
26318.397872,-148.041188,5625.565159,-77528.864398
26318.400392,5033.400406,4589.276840,-74924.139704
26318.402912,-1184.329507,2220.617826,-75383.797003
26318.405445,1776.494261,3108.864956,-77682.083497
26318.407977,-5625.565159,2812.782580,-76915.987999
26318.410510,1480.411884,5625.565159,-74464.482406
26318.413042,-2812.782580,-1480.411884,-77069.207099
26318.415574,-3256.906145,-1628.453072,-76609.549800
26318.418107,1036.288319,1776.494261,-74311.263306
26318.420639,3108.864956,10362.883188,-73698.386908
26318.423172,-444.123565,11695.253884,-75077.358804
26318.425704,-6069.688724,2664.741391,-76456.330700
26318.428237,8142.265362,3256.906145,-74158.044206
26318.430769,-1332.370696,3701.029710,-74617.701505
26318.433301,-740.205942,5477.523971,-77069.207099
26318.435834,5625.565159,2516.700203,-76456.330700
26318.438366,12287.418637,12583.501014,-74617.701505
26318.440899,-13027.624579,4441.235652,-73698.386908
26318.443431,14211.954086,8438.347739,-74004.825107
26318.445964,12435.459826,15100.201217,-73851.606007
26318.448496,148.041188,16136.489536,-74311.263306
26318.451028,3849.070898,12879.583391,-74311.263306
26318.453561,-7105.977043,1628.453072,-75996.673402
26318.456093,2072.576638,2664.741391,-74770.920605
26318.458626,12879.583391,7254.018232,-73085.510509
26318.461158,5625.565159,9622.677246,-77375.645298
26318.463691,10658.965565,12287.418637,-76303.111601
26318.466223,-444.123565,10066.800811,-72932.291410
26318.468755,444.123565,7846.182985,-73391.948708
26318.471288,-4145.153275,6809.894666,-75537.016103
26318.473820,14508.036463,10807.006753,-77528.864398
26318.476353,4589.276840,7105.977043,-74924.139704
26318.478885,7105.977043,6513.812290,-75537.016103
26318.481418,-2516.700203,4145.153275,-75383.797003
26318.483950,7550.100608,5921.647536,-73391.948708
26318.486482,-3404.947333,9474.636058,-72166.195912
26318.489015,2516.700203,11251.130318,-75077.358804
26318.491547,8586.388927,11103.089130,-76303.111601
26318.494080,8142.265362,7550.100608,-73698.386908
26318.496612,0.000000,2812.782580,-75077.358804
26318.499145,2960.823768,6809.894666,-75230.577904
26318.501677,4589.276840,13767.830521,-74617.701505
26318.504209,9918.759623,19689.478057,-75383.797003
26318.506751,-592.164754,14508.036463,-75843.454302
26318.509293,0.000000,5921.647536,-74924.139704
26318.511835,1184.329507,1924.535449,-74311.263306
26318.514377,14508.036463,8734.430116,-74464.482406
26318.516919,-3256.906145,10362.883188,-76303.111601
26318.519461,8882.471304,8438.347739,-76303.111601
26318.522003,1480.411884,9030.512492,-73698.386908
26318.524545,-11547.212695,444.123565,-75230.577904
26318.527087,-5477.523971,1924.535449,-75383.797003
26318.529629,3256.906145,6069.688724,-76303.111601
26318.532171,19985.560434,10658.965565,-75383.797003
26318.534713,-8142.265362,1628.453072,-74924.139704
26318.537255,-1184.329507,-3404.947333,-77069.207099
26318.539797,-8734.430116,1776.494261,-75537.016103
26318.542339,3701.029710,7698.141797,-74770.920605
26318.544881,740.205942,9770.718434,-75996.673402
26318.547423,5033.400406,3552.988522,-77069.207099
26318.549965,-1036.288319,1480.411884,-73391.948708
26318.552507,-3108.864956,444.123565,-72779.072310
26318.555049,-8586.388927,1184.329507,-78294.959896
26318.557591,5773.606348,9030.512492,-75383.797003
26318.560133,3849.070898,8882.471304,-72166.195912
26318.562675,0.000000,1332.370696,-75843.454302
26318.565217,-888.247130,3108.864956,-76456.330700
26318.567759,-592.164754,6957.935855,-74464.482406
26318.570301,-296.082377,7105.977043,-74464.482406
26318.572843,148.041188,5181.441594,-77835.302597
26318.575385,1628.453072,4885.359217,-75383.797003
26318.577927,1628.453072,2664.741391,-74617.701505
26318.580469,-1776.494261,1776.494261,-76609.549800
26318.583011,-1480.411884,2072.576638,-76456.330700
26318.585553,-4293.194464,2516.700203,-75230.577904
26318.588095,-1184.329507,1628.453072,-75537.016103
26318.590637,-5625.565159,-2072.576638,-77222.426198
26318.593179,7254.018232,3997.112087,-75537.016103
26318.595721,0.000000,8438.347739,-74924.139704
26318.598263,-1924.535449,7846.182985,-75537.016103
26318.600805,-4145.153275,-296.082377,-75843.454302
26318.603347,5329.482782,9326.594869,-73545.167808
26318.605889,-740.205942,5329.482782,-74770.920605
26318.608439,-3701.029710,2960.823768,-77222.426198
26318.610989,11251.130318,5625.565159,-76303.111601
26318.613540,-7254.018232,7994.224174,-74158.044206
26318.616090,5625.565159,6957.935855,-74924.139704
26318.618640,11399.171507,9030.512492,-75383.797003
26318.621190,9918.759623,16580.613101,-74464.482406
26318.623740,2812.782580,13915.871710,-73545.167808
26318.626291,1036.288319,6957.935855,-76609.549800
26318.628841,-4589.276840,2220.617826,-76915.987999
26318.631391,5625.565159,4293.194464,-73391.948708
26318.633941,11251.130318,9622.677246,-75230.577904
26318.636491,7994.224174,10362.883188,-76609.549800
26318.639042,8290.306550,13915.871710,-74004.825107
26318.641592,-1628.453072,8586.388927,-73391.948708
26318.644142,1332.370696,7105.977043,-75537.016103
26318.646692,-148.041188,5921.647536,-76303.111601
26318.649242,13915.871710,10807.006753,-75383.797003
26318.651793,3404.947333,9326.594869,-76456.330700
26318.654343,6217.729913,4885.359217,-77375.645298
26318.656893,4885.359217,2960.823768,-74464.482406
26318.659443,-888.247130,8290.306550,-72319.415011
26318.661993,-296.082377,9326.594869,-74924.139704
26318.664544,7402.059420,10658.965565,-76149.892501
26318.667094,9622.677246,10066.800811,-73545.167808
26318.669644,6957.935855,5625.565159,-74464.482406
26318.672194,2220.617826,7550.100608,-76149.892501
26318.674744,3256.906145,14359.995275,-74004.825107
26318.677294,1924.535449,19097.313304,-74617.701505
26318.679845,148.041188,9326.594869,-76456.330700
26318.682395,740.205942,5329.482782,-74924.139704
26318.684945,14656.077652,5921.647536,-73391.948708
26318.687495,12287.418637,11547.212695,-74311.263306
26318.690045,3108.864956,7846.182985,-76149.892501
26318.692596,1036.288319,10214.842000,-74311.263306
26318.695146,-7698.141797,6661.853478,-74311.263306
26318.697696,-4145.153275,-2516.700203,-76609.549800
26318.700246,-4737.318029,1628.453072,-76762.768900
26318.702796,15988.448347,8142.265362,-75996.673402
26318.705347,2368.659014,7402.059420,-74617.701505
26318.707897,-2960.823768,1184.329507,-74924.139704
26318.710425,-15396.283594,740.205942,-76609.549800
26318.712954,1776.494261,6513.812290,-73851.606007
26318.715482,2072.576638,9178.553681,-75077.358804
26318.718010,5033.400406,5477.523971,-77988.521696
26318.720539,1036.288319,2368.659014,-75230.577904
26318.723067,-9178.553681,444.123565,-73238.729609
26318.725596,-1480.411884,1184.329507,-76609.549800
26318.728124,-3404.947333,3404.947333,-77682.083497
26318.730652,6069.688724,10510.924376,-74004.825107
26318.733181,5921.647536,8438.347739,-73238.729609
26318.735709,-2664.741391,592.164754,-76762.768900
26318.738238,-1332.370696,2368.659014,-75843.454302
26318.740766,-5921.647536,4589.276840,-75077.358804
26318.743294,4145.153275,8142.265362,-75996.673402
26318.745823,1184.329507,4885.359217,-75996.673402
26318.748351,2516.700203,5625.565159,-73851.606007
26318.750880,-1332.370696,2220.617826,-74004.825107
26318.753408,-8290.306550,-296.082377,-76762.768900
26318.755936,-3701.029710,296.082377,-76915.987999
26318.758465,-4293.194464,1628.453072,-74770.920605
26318.760993,5625.565159,1480.411884,-76456.330700
26318.763522,4145.153275,6365.771101,-75843.454302
26318.766050,444.123565,9326.594869,-74311.263306
26318.768578,-10955.047942,2812.782580,-75230.577904
26318.771107,4293.194464,3701.029710,-74311.263306
26318.773635,-2072.576638,4737.318029,-76149.892501
26318.776164,3997.112087,6809.894666,-76303.111601
26318.778692,1924.535449,1036.288319,-76609.549800
26318.781220,12583.501014,10214.842000,-74770.920605
26318.783749,-13175.665768,3849.070898,-73545.167808
26318.786277,13027.624579,7698.141797,-74617.701505
26318.788806,12287.418637,15396.283594,-74311.263306
26318.791334,1628.453072,17912.983796,-73698.386908
26318.793862,5181.441594,11251.130318,-73698.386908
26318.796391,-1776.494261,1628.453072,-75996.673402
26318.798919,-4589.276840,1184.329507,-75383.797003
26318.801448,7846.182985,6513.812290,-73085.510509
26318.803976,9030.512492,10510.924376,-75843.454302
26318.806504,11103.089130,10510.924376,-76456.330700
26318.809033,3997.112087,12287.418637,-73238.729609
26318.811572,-148.041188,9474.636058,-72472.634111
26318.814111,-3552.988522,3849.070898,-77375.645298
26318.816651,8290.306550,10362.883188,-74770.920605
26318.819190,5921.647536,9770.718434,-74158.044206
26318.821730,9326.594869,7846.182985,-76762.768900
26318.824269,2664.741391,5773.606348,-76915.987999
26318.826808,2072.576638,3552.988522,-74770.920605
26318.829348,1332.370696,8734.430116,-73085.510509
26318.831887,3108.864956,10510.924376,-77069.207099
26318.834426,10214.842000,10066.800811,-76303.111601
26318.836966,6957.935855,7254.018232,-73545.167808
26318.839505,8438.347739,8290.306550,-74617.701505
26318.842044,2072.576638,11399.171507,-75077.358804
26318.844584,-4145.153275,14656.077652,-74464.482406
26318.847123,-1332.370696,11547.212695,-74617.701505
26318.849662,5773.606348,7105.977043,-74924.139704
26318.852202,21465.972318,10955.047942,-74004.825107
26318.854741,-4441.235652,9178.553681,-74924.139704
26318.857280,7402.059420,4885.359217,-75996.673402
26318.859820,-3256.906145,9326.594869,-74004.825107
26318.862359,-15544.324782,2368.659014,-75383.797003
26318.864898,1036.288319,-1184.329507,-76149.892501
26318.867438,3404.947333,1332.370696,-76456.330700
26318.869977,21465.972318,8734.430116,-75383.797003
26318.872516,-11251.130318,2516.700203,-74924.139704
26318.875056,-4293.194464,-740.205942,-77069.207099
26318.877595,-10658.965565,2664.741391,-75690.235202
26318.880134,4145.153275,7698.141797,-73851.606007
26318.882674,5773.606348,7550.100608,-76609.549800
26318.885213,4885.359217,1480.411884,-77988.521696
26318.887752,888.247130,1776.494261,-73391.948708
26318.890292,-10955.047942,-592.164754,-73238.729609
26318.892831,-4293.194464,1036.288319,-77375.645298
26318.895371,4885.359217,7846.182985,-76762.768900
26318.897910,4441.235652,9918.759623,-74617.701505
26318.900449,6957.935855,5477.523971,-75537.016103
26318.902989,-1036.288319,2960.823768,-76303.111601
26318.905528,-3701.029710,7254.018232,-73085.510509
26318.908067,-4737.318029,4589.276840,-76149.892501
26318.910607,1776.494261,6513.812290,-76609.549800
26318.913155,3997.112087,2812.782580,-76915.987999
26318.915704,148.041188,1332.370696,-74924.139704
26318.918253,-2812.782580,296.082377,-75996.673402
26318.920802,-7698.141797,-2812.782580,-77528.864398
26318.923350,-3701.029710,444.123565,-75690.235202
26318.925899,4885.359217,4441.235652,-74617.701505
26318.928448,4441.235652,7698.141797,-76303.111601
26318.930996,-2516.700203,8290.306550,-75230.577904
26318.933545,-5329.482782,1480.411884,-75077.358804
26318.936094,2664.741391,9918.759623,-73698.386908
26318.938643,-1332.370696,7846.182985,-74924.139704
26318.941191,-2960.823768,4441.235652,-76456.330700
26318.943740,11251.130318,2516.700203,-75077.358804
26318.946289,6957.935855,7994.224174,-74617.701505
26318.948838,-11695.253884,3997.112087,-74617.701505
26318.951386,15840.407159,8586.388927,-75230.577904
26318.953935,9770.718434,18801.230927,-73698.386908
26318.956484,-2368.659014,16284.530724,-72932.291410
26318.959033,6809.894666,7846.182985,-74924.139704
26318.961581,-4589.276840,2072.576638,-76609.549800
26318.964130,-1776.494261,2960.823768,-74617.701505
26318.966679,9622.677246,8142.265362,-73545.167808
26318.969227,8142.265362,9178.553681,-77222.426198
26318.971776,11843.295072,10658.965565,-75537.016103
26318.974325,296.082377,11991.336260,-72166.195912
26318.976874,2664.741391,9918.759623,-73698.386908
26318.979422,-2368.659014,2368.659014,-78294.959896
26318.981971,6661.853478,8734.430116,-74617.701505
26318.984520,10362.883188,10510.924376,-74464.482406
26318.987069,1480.411884,5773.606348,-77835.302597
26318.989617,8586.388927,5181.441594,-76915.987999
26318.992166,-3256.906145,5477.523971,-73545.167808
26318.994715,3404.947333,10955.047942,-74158.044206
26318.997264,6661.853478,10066.800811,-76149.892501
26318.999812,3701.029710,8290.306550,-75843.454302
26319.002361,15100.201217,11695.253884,-73545.167808
26319.004910,-2664.741391,11399.171507,-74617.701505
26319.007458,-1036.288319,9474.636058,-75843.454302
26319.010007,-7698.141797,10214.842000,-73698.386908
26319.012556,10362.883188,10807.006753,-73545.167808
26319.015112,19689.478057,13619.789333,-74770.920605
26319.017669,1332.370696,11695.253884,-75077.358804
26319.020226,9622.677246,3849.070898,-75843.454302
26319.022782,-8882.471304,8438.347739,-73391.948708
26319.025339,-15988.448347,-444.123565,-76915.987999
26319.027895,1332.370696,1036.288319,-75843.454302
26319.030452,15248.242405,4737.318029,-74770.920605
26319.033008,11399.171507,8586.388927,-74464.482406
26319.035565,-7550.100608,1776.494261,-76303.111601
26319.038121,-4441.235652,-296.082377,-76915.987999
26319.040678,-8734.430116,4885.359217,-75230.577904
26319.043235,3552.988522,7994.224174,-74770.920605
26319.045791,6809.894666,6513.812290,-76762.768900
26319.048348,3404.947333,-148.041188,-78294.959896
26319.050904,-3108.864956,888.247130,-73085.510509
26319.053461,-8290.306550,740.205942,-74004.825107
26319.056017,-4589.276840,2516.700203,-78907.836294
26319.058574,6513.812290,10066.800811,-75996.673402
26319.061130,4293.194464,5625.565159,-74004.825107
26319.063687,5773.606348,3849.070898,-74770.920605
26319.066243,1776.494261,5033.400406,-75077.358804
26319.068800,-9918.759623,5625.565159,-74311.263306
26319.071357,-1036.288319,7254.018232,-76762.768900
26319.073913,1628.453072,3108.864956,-77835.302597
26319.076470,4145.153275,2516.700203,-76149.892501
26319.079026,-1036.288319,444.123565,-74464.482406
26319.081583,-6809.894666,-1332.370696,-76149.892501
26319.084139,-3256.906145,-1924.535449,-76149.892501
26319.086696,1480.411884,4293.194464,-74924.139704
26319.089252,1776.494261,7846.182985,-74617.701505
26319.091809,-6365.771101,3404.947333,-76609.549800
26319.094366,1924.535449,0.000000,-74924.139704
26319.096922,4145.153275,9178.553681,-73085.510509
26319.099479,-2960.823768,8438.347739,-75383.797003
26319.102035,-4145.153275,3997.112087,-76915.987999
26319.104592,13175.665768,2220.617826,-75383.797003
26319.107148,2220.617826,7550.100608,-74770.920605
26319.109705,-6365.771101,3404.947333,-75383.797003
26319.112261,17320.819043,9770.718434,-76303.111601
26319.114818,10955.047942,18505.148550,-74617.701505
26319.117352,-3552.988522,14952.160028,-73238.729609
26319.119886,8734.430116,7698.141797,-75537.016103
26319.122420,-7846.182985,1924.535449,-76149.892501
26319.124955,888.247130,4293.194464,-74770.920605
26319.127489,10066.800811,7254.018232,-73851.606007
26319.130023,10362.883188,9622.677246,-76609.549800
26319.132557,6957.935855,12287.418637,-74617.701505
26319.135091,444.123565,11251.130318,-72779.072310
26319.137626,4145.153275,9030.512492,-75383.797003
26319.140160,-2516.700203,3552.988522,-77682.083497
26319.142694,7698.141797,8882.471304,-75077.358804
26319.145228,4885.359217,7698.141797,-74770.920605
26319.147762,6513.812290,7402.059420,-75843.454302
26319.150296,2072.576638,6365.771101,-74617.701505
26319.152831,-2812.782580,8142.265362,-72012.976812
26319.155365,4885.359217,10658.965565,-74617.701505
26319.157899,6365.771101,9178.553681,-75996.673402
26319.160433,13323.706956,11843.295072,-74004.825107
26319.162967,4589.276840,9178.553681,-73391.948708
26319.165501,-888.247130,8882.471304,-74924.139704
26319.168036,-4737.318029,9030.512492,-74924.139704
26319.170570,2664.741391,10955.047942,-73545.167808
26319.173104,21021.848753,16876.695478,-74311.263306
26319.175638,-740.205942,10658.965565,-75383.797003
26319.178172,12879.583391,2664.741391,-75843.454302
26319.180707,-4589.276840,7550.100608,-73238.729609
26319.183241,-20133.601622,148.041188,-75996.673402
26319.185775,5181.441594,-2072.576638,-77682.083497
26319.188309,-740.205942,1776.494261,-75537.016103
26319.190843,22206.178260,7846.182985,-75383.797003
26319.193377,-7105.977043,1036.288319,-75537.016103
26319.195912,-5033.400406,148.041188,-76303.111601
26319.198446,-13915.871710,6217.729913,-74464.482406
26319.200980,1184.329507,10510.924376,-74004.825107
26319.203514,10066.800811,7994.224174,-76456.330700
26319.206048,4293.194464,296.082377,-77222.426198
26319.208582,3701.029710,-2220.617826,-74311.263306
26319.211117,-10955.047942,-740.205942,-73238.729609
26319.213651,-4589.276840,2664.741391,-79061.055394
26319.216185,4293.194464,10807.006753,-78907.836294
26319.218701,5773.606348,5033.400406,-75690.235202
26319.221218,2516.700203,3108.864956,-75383.797003
26319.223734,2516.700203,5773.606348,-75383.797003
26319.226251,-9770.718434,9326.594869,-75537.016103
26319.228767,-5181.441594,8438.347739,-75843.454302
26319.231284,148.041188,3108.864956,-77988.521696
26319.233800,2368.659014,444.123565,-77682.083497
26319.236317,3552.988522,-296.082377,-73698.386908
26319.238833,-10214.842000,-3404.947333,-76303.111601
26319.241350,4885.359217,2368.659014,-75537.016103
26319.243866,-4737.318029,6809.894666,-74770.920605
26319.246383,3552.988522,9326.594869,-75383.797003
26319.248899,-10066.800811,-148.041188,-76149.892501
26319.251416,11547.212695,4737.318029,-74311.263306
26319.253932,-1776.494261,6365.771101,-75077.358804
26319.256449,-2516.700203,5773.606348,-75843.454302
26319.258965,1184.329507,-1628.453072,-76303.111601
26319.261482,11547.212695,11103.089130,-73698.386908
26319.263998,-8586.388927,6217.729913,-73851.606007
26319.266515,12287.418637,9918.759623,-74924.139704
26319.269031,18653.189738,15692.365970,-74924.139704
26319.271548,740.205942,17912.983796,-73085.510509
26319.274064,1480.411884,12731.542202,-74158.044206
26319.276581,-1184.329507,3701.029710,-76149.892501
26319.279097,-4589.276840,2072.576638,-76149.892501
26319.281614,11251.130318,5773.606348,-74770.920605
26319.284130,9030.512492,7550.100608,-77835.302597
26319.286647,10658.965565,11695.253884,-75230.577904
26319.289163,1628.453072,10955.047942,-72012.976812
26319.291680,1924.535449,10510.924376,-72625.853210
26319.294196,-4885.359217,2664.741391,-76456.330700
26319.296713,6957.935855,7994.224174,-75690.235202
26319.299229,7402.059420,8290.306550,-74770.920605
26319.301746,7846.182985,8290.306550,-75690.235202
26319.304262,2516.700203,6217.729913,-74770.920605
26319.306779,592.164754,7254.018232,-72779.072310
26319.309295,2368.659014,10510.924376,-73545.167808
26319.311812,6513.812290,10362.883188,-76609.549800
26319.314328,9918.759623,11399.171507,-76762.768900
26319.316845,3701.029710,11991.336260,-72625.853210
26319.319376,1036.288319,6809.894666,-75996.673402
26319.321907,-5773.606348,4737.318029,-75230.577904
26319.324439,11547.212695,13471.748144,-72932.291410
26319.326970,15840.407159,17912.983796,-74158.044206
26319.329501,2664.741391,11991.336260,-76149.892501
26319.332032,9178.553681,4441.235652,-75843.454302
26319.334563,-4441.235652,7402.059420,-73085.510509
26319.337094,-12879.583391,-5181.441594,-77222.426198
26319.339626,-3849.070898,444.123565,-77528.864398
26319.342157,7698.141797,4441.235652,-75843.454302
26319.344688,13471.748144,8438.347739,-75230.577904
26319.347219,-5773.606348,2072.576638,-75996.673402
26319.349750,-7402.059420,-592.164754,-76762.768900
26319.352282,-9326.594869,6217.729913,-74158.044206
26319.354813,740.205942,10362.883188,-74617.701505
26319.357344,10214.842000,5181.441594,-78294.959896
26319.359875,1480.411884,0.000000,-76149.892501
26319.362406,-296.082377,-1332.370696,-72932.291410
26319.364937,-14063.912898,-296.082377,-74617.701505
26319.367469,-5625.565159,6957.935855,-77682.083497
26319.370000,1628.453072,11547.212695,-76762.768900
26319.372531,13175.665768,6217.729913,-75077.358804
26319.375062,3404.947333,1776.494261,-75383.797003
26319.377593,-3701.029710,5329.482782,-76303.111601
26319.380125,-4737.318029,6365.771101,-75996.673402
26319.382656,-4293.194464,3701.029710,-75230.577904
26319.385187,1036.288319,1776.494261,-76609.549800
26319.387718,888.247130,-3552.988522,-76915.987999
26319.390249,-2072.576638,-2516.700203,-74617.701505
26319.392780,2220.617826,1924.535449,-75690.235202
26319.395312,-2072.576638,7550.100608,-75843.454302
26319.397843,-2812.782580,8882.471304,-74311.263306
26319.400386,-9918.759623,1628.453072,-75077.358804
26319.402929,15692.365970,5921.647536,-74617.701505
26319.405471,-592.164754,5181.441594,-75230.577904
26319.408014,-2960.823768,6217.729913,-74924.139704
26319.410556,2072.576638,-2960.823768,-76456.330700
26319.413099,10510.924376,11695.253884,-74004.825107
26319.415641,-15840.407159,7402.059420,-73698.386908
26319.418183,17616.901420,9770.718434,-75230.577904
26319.420726,14508.036463,17468.860231,-73698.386908
26319.423268,-1036.288319,16728.654289,-72932.291410
26319.425811,8438.347739,13471.748144,-73391.948708
26319.428353,-2960.823768,2960.823768,-76915.987999
26319.430896,-3256.906145,3256.906145,-75843.454302
26319.433438,4145.153275,4885.359217,-74004.825107
26319.435981,13767.830521,7550.100608,-77069.207099
26319.438523,9178.553681,10362.883188,-75230.577904
26319.441066,-1480.411884,11991.336260,-70480.785816
26319.443608,2072.576638,10510.924376,-72625.853210
26319.446151,-1036.288319,6217.729913,-74924.139704
26319.448693,2368.659014,13767.830521,-73238.729609
26319.451235,9326.594869,9918.759623,-75077.358804
26319.453778,3552.988522,7550.100608,-77222.426198
26319.456320,7402.059420,5329.482782,-74924.139704
26319.458863,-1332.370696,5773.606348,-72779.072310
26319.461405,6513.812290,11695.253884,-74770.920605
26319.463948,1924.535449,10658.965565,-77375.645298
26319.466490,11547.212695,14804.118840,-75996.673402
26319.469033,148.041188,10066.800811,-74464.482406
26319.471575,-2220.617826,5033.400406,-76149.892501
26319.474118,9326.594869,8438.347739,-74311.263306
26319.476660,14211.954086,16136.489536,-73545.167808
26319.479202,2812.782580,14359.995275,-76149.892501
26319.481745,4293.194464,7254.018232,-76915.987999
26319.484287,2664.741391,9622.677246,-74464.482406
26319.486830,-16284.530724,-2812.782580,-75996.673402
26319.489372,2960.823768,-3701.029710,-76456.330700
26319.491915,3849.070898,1036.288319,-75843.454302
26319.494457,14508.036463,9474.636058,-74924.139704
26319.497000,-6661.853478,2664.741391,-76456.330700
26319.499542,-6069.688724,592.164754,-77069.207099
26319.502094,-7254.018232,3997.112087,-74004.825107
26319.504647,888.247130,9622.677246,-72779.072310
26319.507199,6513.812290,7254.018232,-75843.454302
26319.509751,3997.112087,3256.906145,-78141.740796
26319.512304,296.082377,-444.123565,-73085.510509
26319.514856,-7698.141797,-2220.617826,-74924.139704
26319.517408,-5625.565159,6809.894666,-77375.645298
26319.519961,1776.494261,7994.224174,-76915.987999
26319.522513,9030.512492,8290.306550,-74770.920605
26319.525065,4145.153275,1924.535449,-74311.263306
26319.527618,-2368.659014,1924.535449,-76456.330700
26319.530170,-4293.194464,7402.059420,-75077.358804
26319.532722,-5477.523971,3552.988522,-75537.016103
26319.535275,-1628.453072,740.205942,-77375.645298
26319.537827,2664.741391,-2368.659014,-76456.330700
26319.540379,2516.700203,-2368.659014,-75077.358804
26319.542932,1184.329507,3552.988522,-75383.797003
26319.545484,-1036.288319,5329.482782,-77069.207099
26319.548036,-9622.677246,5181.441594,-76915.987999
26319.550588,-4589.276840,2368.659014,-75077.358804
26319.553141,8142.265362,6957.935855,-76303.111601
26319.555693,3997.112087,8290.306550,-75077.358804
26319.558245,-13619.789333,444.123565,-74924.139704
26319.560798,23538.548956,6661.853478,-74770.920605
26319.563350,-14063.912898,5773.606348,-75690.235202
26319.565902,7698.141797,9474.636058,-76456.330700
26319.568455,12287.418637,10658.965565,-75383.797003
26319.571007,12287.418637,18949.272115,-73545.167808
26319.573559,9474.636058,13767.830521,-73391.948708
26319.576112,-1776.494261,4737.318029,-76609.549800
26319.578664,-3849.070898,3404.947333,-75996.673402
26319.581216,-3997.112087,5329.482782,-74158.044206
26319.583769,14359.995275,6661.853478,-75996.673402
26319.586321,9622.677246,7846.182985,-77835.302597
26319.588873,9622.677246,13027.624579,-74617.701505
26319.591426,-3404.947333,11843.295072,-72625.853210
26319.593978,5773.606348,8142.265362,-74770.920605
26319.596530,-5329.482782,4145.153275,-75230.577904
26319.599082,5773.606348,9770.718434,-74464.482406
26319.601635,14063.912898,11695.253884,-74004.825107
26319.604167,4293.194464,4441.235652,-75690.235202
26319.606699,9474.636058,7994.224174,-72472.634111
26319.609231,-2664.741391,7105.977043,-71093.662214
26319.611763,5181.441594,11251.130318,-74311.263306
26319.614295,2368.659014,12879.583391,-76456.330700
26319.616827,5625.565159,11843.295072,-75383.797003
26319.619359,2516.700203,7846.182985,-74464.482406
26319.621891,11399.171507,7994.224174,-74311.263306
26319.624423,11103.089130,13175.665768,-74158.044206
26319.626956,-592.164754,12583.501014,-74464.482406
26319.629488,2812.782580,9326.594869,-75537.016103
26319.632020,444.123565,9770.718434,-74770.920605
26319.634552,-7402.059420,-5477.523971,-76762.768900
26319.637084,-3701.029710,-2368.659014,-76456.330700
26319.639616,6217.729913,592.164754,-75230.577904
26319.642148,10807.006753,8290.306550,-74004.825107
26319.644680,-5329.482782,4145.153275,-75230.577904
26319.647212,-9622.677246,3108.864956,-76456.330700
26319.649744,-5181.441594,4589.276840,-74924.139704
26319.652276,1036.288319,9178.553681,-73391.948708
26319.654808,9474.636058,6069.688724,-77682.083497
26319.657340,296.082377,592.164754,-77069.207099
26319.659872,-592.164754,0.000000,-73851.606007
26319.662405,-11103.089130,-2368.659014,-75383.797003
26319.664937,-7550.100608,6661.853478,-77069.207099
26319.667469,7550.100608,10214.842000,-74924.139704
26319.670001,6217.729913,8142.265362,-73545.167808
26319.672533,2960.823768,1776.494261,-74158.044206
26319.675065,-5033.400406,4145.153275,-75537.016103
26319.677597,-5773.606348,5033.400406,-76303.111601
26319.680129,-7550.100608,3552.988522,-76303.111601
26319.682661,2960.823768,1184.329507,-76762.768900
26319.685193,444.123565,-4293.194464,-75690.235202
26319.687725,10658.965565,2960.823768,-73391.948708
26319.690257,-8586.388927,2664.741391,-75383.797003
26319.692789,-740.205942,7994.224174,-75843.454302
26319.695321,-17764.942608,3256.906145,-74924.139704
26319.697854,12287.418637,9622.677246,-73851.606007
26319.700386,4145.153275,5773.606348,-75690.235202
26319.702918,-7254.018232,3256.906145,-75996.673402
26319.705462,18209.066173,592.164754,-75383.797003
26319.708006,1480.411884,11695.253884,-73698.386908
26319.710550,-16284.530724,7846.182985,-75077.358804
26319.713094,19541.436869,9474.636058,-76303.111601
26319.715638,10214.842000,14952.160028,-74004.825107
26319.718182,9178.553681,13915.871710,-72932.291410
26319.720726,0.000000,8882.471304,-75230.577904
26319.723270,296.082377,1924.535449,-76456.330700
26319.725814,-3849.070898,6069.688724,-74004.825107
26319.728359,1036.288319,5329.482782,-74158.044206
26319.730903,16284.530724,9622.677246,-77682.083497
26319.733447,6513.812290,9474.636058,-75690.235202
26319.735991,6217.729913,11843.295072,-72319.415011
26319.738535,1036.288319,7994.224174,-74311.263306
26319.741079,-3404.947333,4441.235652,-75690.235202
26319.743623,296.082377,10066.800811,-73545.167808
26319.746167,8734.430116,12139.377449,-74004.825107
26319.748711,8438.347739,9030.512492,-76609.549800
26319.751255,10214.842000,5773.606348,-76149.892501
26319.753799,2220.617826,6661.853478,-72319.415011
26319.756343,3997.112087,9326.594869,-73085.510509
26319.758887,-6661.853478,11399.171507,-76762.768900
26319.761432,7994.224174,14508.036463,-74924.139704
26319.763976,5329.482782,9178.553681,-74158.044206
26319.766520,16876.695478,12139.377449,-74158.044206
26319.769064,5329.482782,13471.748144,-73085.510509
26319.771608,-592.164754,8882.471304,-75077.358804
26319.774152,2220.617826,7994.224174,-74770.920605
26319.776696,-6513.812290,9030.512492,-75690.235202
26319.779240,148.041188,-4145.153275,-77682.083497
26319.781784,-3849.070898,-4145.153275,-77528.864398
26319.784328,17024.736666,3108.864956,-75690.235202
26319.786872,-4737.318029,5477.523971,-74770.920605
26319.789416,-444.123565,5773.606348,-75230.577904
26319.791961,-17172.777854,3701.029710,-76609.549800
26319.794505,0.000000,7698.141797,-74158.044206
26319.797049,1480.411884,7254.018232,-74617.701505
26319.799593,10214.842000,4441.235652,-77835.302597
26319.802137,-1184.329507,444.123565,-75690.235202
26319.804681,-8290.306550,740.205942,-73391.948708
26319.807235,-11843.295072,-1184.329507,-76303.111601
26319.809789,-888.247130,10807.006753,-77528.864398
26319.812344,4737.318029,9622.677246,-76149.892501
26319.814898,6217.729913,8586.388927,-73851.606007
26319.817452,-148.041188,2072.576638,-75383.797003
26319.820006,-10658.965565,2368.659014,-74004.825107
26319.822560,-6217.729913,5033.400406,-73238.729609
26319.825115,-5477.523971,1924.535449,-75537.016103
26319.827669,4589.276840,-1184.329507,-77222.426198
26319.830223,7254.018232,296.082377,-74158.044206
26319.832777,2368.659014,5033.400406,-74004.825107
26319.835332,-6069.688724,4737.318029,-76915.987999
26319.837886,-11843.295072,1776.494261,-77375.645298
26319.840440,6809.894666,9474.636058,-73545.167808
26319.842994,10066.800811,6661.853478,-75537.016103
26319.845548,-4293.194464,3997.112087,-76915.987999
26319.848103,5625.565159,-1036.288319,-75690.235202
26319.850657,14508.036463,11103.089130,-73698.386908
26319.853211,-18357.107362,7254.018232,-74770.920605
26319.855765,17468.860231,9326.594869,-76915.987999
26319.858320,13175.665768,17320.819043,-74770.920605
26319.860874,2368.659014,14508.036463,-72472.634111
26319.863428,5921.647536,11251.130318,-72779.072310
26319.865982,-2664.741391,1628.453072,-77069.207099
26319.868536,148.041188,6217.729913,-75230.577904
26319.871091,5033.400406,6809.894666,-73851.606007
26319.873645,15988.448347,10510.924376,-77682.083497
26319.876199,8290.306550,9770.718434,-75383.797003
26319.878753,1924.535449,12583.501014,-70480.785816
26319.881308,4885.359217,10214.842000,-72472.634111
26319.883862,148.041188,5773.606348,-75690.235202
26319.886416,-2072.576638,9622.677246,-74770.920605
26319.888970,10066.800811,9770.718434,-74924.139704
26319.891524,7550.100608,7994.224174,-76303.111601
26319.894079,7698.141797,6069.688724,-74464.482406
26319.896633,3404.947333,7550.100608,-72779.072310
26319.899187,-2072.576638,9474.636058,-73851.606007
26319.901741,-148.041188,12583.501014,-75843.454302
26319.904296,1480.411884,12287.418637,-75690.235202
26319.906850,17024.736666,12879.583391,-74004.825107
26319.909384,13027.624579,13471.748144,-73698.386908
26319.911918,-1628.453072,8586.388927,-75383.797003
26319.914452,3701.029710,5033.400406,-74311.263306
26319.916987,-5329.482782,9474.636058,-73698.386908
26319.919521,-7994.224174,-740.205942,-77528.864398
26319.922055,-1776.494261,-1036.288319,-76303.111601
26319.924589,4145.153275,-1184.329507,-75383.797003
26319.927123,15544.324782,5181.441594,-74617.701505
26319.929658,-10066.800811,3552.988522,-75230.577904
26319.932192,-12435.459826,3552.988522,-75996.673402
26319.934726,-6217.729913,4885.359217,-76303.111601
26319.937260,5181.441594,7698.141797,-74158.044206
26319.939794,6957.935855,3256.906145,-76149.892501
26319.942328,4441.235652,2368.659014,-76303.111601
26319.944863,-4145.153275,740.205942,-74158.044206
26319.947397,-8142.265362,888.247130,-74311.263306
26319.949931,-10362.883188,1332.370696,-78448.178995
26319.952465,4885.359217,9326.594869,-76456.330700
26319.954999,9622.677246,5477.523971,-74004.825107
26319.957534,2368.659014,1480.411884,-75537.016103
26319.960068,-740.205942,1924.535449,-74924.139704
26319.962602,-12287.418637,2664.741391,-74924.139704
26319.965136,-5625.565159,5181.441594,-75077.358804
26319.967670,-2812.782580,-148.041188,-77682.083497
26319.970205,11399.171507,1184.329507,-75996.673402
26319.972739,3997.112087,4145.153275,-73238.729609
26319.975273,-10658.965565,1924.535449,-77835.302597
26319.977807,-5921.647536,-1480.411884,-77682.083497
26319.980341,-148.041188,11991.336260,-73698.386908
26319.982876,7994.224174,9178.553681,-74617.701505
26319.985410,1184.329507,3552.988522,-77222.426198
26319.987944,5921.647536,-444.123565,-75690.235202
26319.990478,11103.089130,10214.842000,-73238.729609
26319.993012,-9770.718434,6957.935855,-75230.577904
26319.995547,15396.283594,9918.759623,-76762.768900
26319.998081,12435.459826,18209.066173,-74617.701505
26320.000615,5033.400406,15840.407159,-72625.853210
26320.003149,2664.741391,11399.171507,-73545.167808
26320.005683,592.164754,1332.370696,-76609.549800
26320.008217,-148.041188,5181.441594,-74770.920605
26320.010764,-5181.441594,6957.935855,-74004.825107
26320.013311,15840.407159,9918.759623,-76915.987999
26320.015858,6661.853478,10807.006753,-75077.358804
26320.018404,7994.224174,15100.201217,-69561.471218
26320.020951,-4885.359217,5033.400406,-73851.606007
26320.023498,7846.182985,4145.153275,-76149.892501
26320.026045,-4589.276840,7846.182985,-74770.920605
26320.028591,14508.036463,11399.171507,-74311.263306
26320.031138,6661.853478,9178.553681,-75996.673402
26320.033685,8882.471304,5625.565159,-74464.482406
26320.036232,2072.576638,7105.977043,-72166.195912
26320.038778,-5921.647536,9474.636058,-74770.920605
26320.041325,592.164754,14063.912898,-76762.768900
26320.043872,6661.853478,14952.160028,-75077.358804
26320.046419,20873.807564,17172.777854,-73391.948708
26320.048965,7105.977043,15544.324782,-73238.729609
26320.051512,1184.329507,5477.523971,-75537.016103
26320.054059,3552.988522,5181.441594,-74464.482406
26320.056605,-17764.942608,5329.482782,-75077.358804
26320.059152,4589.276840,-3701.029710,-79061.055394
26320.061699,-4145.153275,-3849.070898,-76915.987999
26320.064246,21317.931130,3849.070898,-74158.044206
26320.066792,-4737.318029,4737.318029,-74464.482406
26320.069339,-2220.617826,6069.688724,-74924.139704
26320.071886,-19393.395680,4737.318029,-75690.235202
26320.074433,-1924.535449,8142.265362,-75077.358804
26320.076979,3701.029710,4145.153275,-75843.454302
26320.079526,12731.542202,3997.112087,-77375.645298
26320.082073,592.164754,-1628.453072,-75383.797003
26320.084620,-6365.771101,2812.782580,-72166.195912
26320.087166,-10214.842000,3701.029710,-73391.948708
26320.089713,-4293.194464,8142.265362,-76149.892501
26320.092260,7254.018232,7550.100608,-75230.577904
26320.094807,2368.659014,3404.947333,-73545.167808
26320.097353,4293.194464,2072.576638,-77069.207099
26320.099900,-7846.182985,0.000000,-77375.645298
26320.102447,-10658.965565,2812.782580,-75996.673402
26320.104994,-1628.453072,1924.535449,-76149.892501
26320.107540,4885.359217,1924.535449,-77222.426198
26320.110087,7402.059420,4145.153275,-75230.577904
26320.112644,-9326.594869,2220.617826,-75077.358804
26320.115201,-1776.494261,-2368.659014,-77682.083497
26320.117758,-4293.194464,7698.141797,-73698.386908
26320.120315,6513.812290,11399.171507,-74311.263306
26320.122872,-6365.771101,3256.906145,-77222.426198
26320.125429,15988.448347,4737.318029,-75843.454302
26320.127985,2664.741391,9326.594869,-73545.167808
26320.130542,-7402.059420,6513.812290,-74311.263306
26320.133099,14359.995275,7994.224174,-75690.235202
26320.135656,9918.759623,17320.819043,-74617.701505
26320.138213,4293.194464,14952.160028,-72625.853210
26320.140770,4441.235652,9770.718434,-75843.454302
26320.143327,1036.288319,4145.153275,-76456.330700
26320.145884,-1924.535449,6365.771101,-73085.510509
26320.148441,3108.864956,6513.812290,-72779.072310
26320.150998,13175.665768,6957.935855,-77835.302597
26320.153555,6809.894666,10955.047942,-74464.482406
26320.156112,6661.853478,12583.501014,-71706.538613
26320.158669,3404.947333,5181.441594,-76456.330700
26320.161225,-296.082377,5181.441594,-76609.549800
26320.163782,7402.059420,8586.388927,-74158.044206
26320.166339,8290.306550,9622.677246,-75077.358804
26320.168896,6513.812290,10510.924376,-75843.454302
26320.171453,7254.018232,6957.935855,-75077.358804
26320.174010,-2220.617826,8438.347739,-72932.291410
26320.176567,2960.823768,9770.718434,-73391.948708
26320.179124,-1332.370696,11399.171507,-77222.426198
26320.181681,18949.272115,18653.189738,-74004.825107
26320.184238,12287.418637,18505.148550,-73085.510509
26320.186795,2812.782580,8586.388927,-76609.549800
26320.189352,2960.823768,2072.576638,-75537.016103
26320.191909,-6957.935855,8142.265362,-73238.729609
26320.194465,-11695.253884,-1628.453072,-77222.426198
26320.197022,-1628.453072,-444.123565,-77835.302597
26320.199579,9918.759623,1332.370696,-74924.139704
26320.202136,11991.336260,8142.265362,-73545.167808
26320.204693,-5329.482782,3849.070898,-75383.797003
26320.207250,-11695.253884,3552.988522,-75996.673402
26320.209807,-7402.059420,5921.647536,-75077.358804
26320.212364,3404.947333,6809.894666,-74004.825107
26320.214929,8882.471304,2516.700203,-77375.645298
26320.217495,5625.565159,0.000000,-76609.549800
26320.220060,-1924.535449,296.082377,-75383.797003
26320.222625,-14508.036463,148.041188,-76149.892501
26320.225191,-3997.112087,9770.718434,-77375.645298
26320.227756,-1036.288319,9622.677246,-75996.673402
26320.230322,12435.459826,5625.565159,-74770.920605
26320.232887,-2368.659014,2368.659014,-74464.482406
26320.235452,296.082377,1480.411884,-76303.111601
26320.238018,-11399.171507,1776.494261,-75383.797003
26320.240583,-5329.482782,1924.535449,-74924.139704
26320.243149,2516.700203,1480.411884,-76609.549800
26320.245714,8290.306550,3849.070898,-75996.673402
26320.248279,-8586.388927,0.000000,-75537.016103
26320.250845,0.000000,-888.247130,-75996.673402
26320.253410,-4441.235652,7698.141797,-75077.358804
26320.255976,1332.370696,9622.677246,-75690.235202
26320.258541,-3404.947333,4293.194464,-76609.549800
26320.261106,11843.295072,2072.576638,-76149.892501
26320.263672,-1036.288319,10510.924376,-74311.263306
26320.266237,-1628.453072,8438.347739,-74924.139704
26320.268803,14211.954086,6809.894666,-76303.111601
26320.271368,8290.306550,15840.407159,-73698.386908
26320.273933,5329.482782,12879.583391,-73238.729609
26320.276499,2960.823768,7402.059420,-76915.987999
26320.279064,888.247130,5477.523971,-76303.111601
26320.281630,-1628.453072,6513.812290,-74004.825107
26320.284195,6069.688724,7254.018232,-74770.920605
26320.286760,4145.153275,7698.141797,-77835.302597
26320.289326,9178.553681,13323.706956,-75843.454302
26320.291891,2516.700203,10510.924376,-73391.948708
26320.294457,-2072.576638,5773.606348,-75843.454302
26320.297022,9918.759623,8734.430116,-75383.797003
26320.299587,444.123565,8882.471304,-73851.606007
26320.302153,14359.995275,11991.336260,-74617.701505
26320.304718,2960.823768,6513.812290,-76456.330700
26320.307284,7402.059420,8586.388927,-73698.386908
26320.309849,-2220.617826,6217.729913,-72932.291410
26320.312414,-1628.453072,10807.006753,-75230.577904
26320.314980,13323.706956,15988.448347,-76149.892501
26320.317551,13767.830521,19985.560434,-72932.291410
26320.320122,8290.306550,15692.365970,-73698.386908
26320.322694,-1924.535449,3108.864956,-75690.235202
26320.325266,3404.947333,5181.441594,-73851.606007
26320.327838,-18357.107362,1628.453072,-74464.482406
26320.330409,5329.482782,-2960.823768,-76762.768900
26320.332981,-6513.812290,-4145.153275,-77835.302597
26320.335553,19689.478057,7105.977043,-74924.139704
26320.338125,-8882.471304,4589.276840,-75383.797003
26320.340696,-5329.482782,4441.235652,-76609.549800
26320.343268,-11843.295072,4885.359217,-75230.577904
26320.345840,-2072.576638,7402.059420,-73391.948708
26320.348412,4885.359217,3552.988522,-76303.111601
26320.350984,9326.594869,1924.535449,-77988.521696
26320.353555,-592.164754,592.164754,-75537.016103
26320.356127,-9622.677246,2812.782580,-72319.415011
26320.358699,-5921.647536,7550.100608,-75843.454302
26320.361271,-8290.306550,7105.977043,-76456.330700
26320.363842,13767.830521,7698.141797,-74004.825107
26320.366414,-1776.494261,2368.659014,-74770.920605
26320.368986,7550.100608,3552.988522,-77222.426198
26320.371558,-13323.706956,444.123565,-76149.892501
26320.374130,-2220.617826,3256.906145,-74004.825107
26320.376701,1332.370696,1628.453072,-76303.111601
26320.379273,4589.276840,3552.988522,-76149.892501
26320.381845,-6661.853478,-1628.453072,-75996.673402
26320.384417,4293.194464,-740.205942,-76303.111601
26320.386988,-740.205942,7402.059420,-75230.577904
26320.389560,1776.494261,9770.718434,-74311.263306
26320.392132,-9622.677246,2664.741391,-75537.016103
26320.394704,14804.118840,5329.482782,-74158.044206
26320.397275,2368.659014,10362.883188,-74464.482406
26320.399847,3997.112087,10066.800811,-75383.797003
26320.402419,17616.901420,9326.594869,-75537.016103
26320.404991,5329.482782,15248.242405,-74464.482406
26320.407563,-1628.453072,12583.501014,-73851.606007
26320.410134,6365.771101,9326.594869,-76149.892501
26320.412706,-296.082377,4589.276840,-76303.111601
26320.415278,2368.659014,6809.894666,-74464.482406
26320.417850,4589.276840,7550.100608,-73698.386908
26320.420427,4145.153275,6513.812290,-75690.235202
26320.423004,10658.965565,14211.954086,-72012.976812
26320.425581,-5773.606348,10066.800811,-72319.415011
26320.428158,13471.748144,6069.688724,-75230.577904
26320.430735,-5921.647536,5477.523971,-75077.358804
26320.433311,12731.542202,10955.047942,-72166.195912
26320.435888,2516.700203,9326.594869,-74158.044206
26320.438465,12583.501014,9770.718434,-75690.235202
26320.441042,-1924.535449,3997.112087,-74617.701505
26320.443619,-1480.411884,10214.842000,-73545.167808
26320.446196,4145.153275,13027.624579,-75077.358804
26320.448773,12879.583391,19689.478057,-76303.111601
26320.451350,14656.077652,21021.848753,-73545.167808
26320.453927,740.205942,11991.336260,-74004.825107
26320.456504,5033.400406,2516.700203,-76456.330700
26320.459081,-6365.771101,6513.812290,-74004.825107
26320.461658,-5181.441594,-5181.441594,-77069.207099
26320.464235,-5181.441594,-2368.659014,-77069.207099
26320.466812,13175.665768,1184.329507,-75843.454302
26320.469389,7105.977043,6661.853478,-74004.825107
26320.471966,-1480.411884,5477.523971,-74464.482406
26320.474543,-16432.571912,3997.112087,-76149.892501
26320.477120,-3552.988522,6957.935855,-74770.920605
26320.479697,-888.247130,6513.812290,-74158.044206
26320.482274,12287.418637,296.082377,-78601.398095
26320.484851,2368.659014,-1924.535449,-75996.673402
26320.487428,444.123565,-296.082377,-73238.729609
26320.490005,-13619.789333,3552.988522,-74617.701505
26320.492582,-6809.894666,9622.677246,-76149.892501
26320.495159,-148.041188,6365.771101,-75690.235202
26320.497736,5477.523971,6513.812290,-73238.729609
26320.500313,1628.453072,2220.617826,-75690.235202
26320.502890,-4145.153275,740.205942,-77069.207099
26320.505467,-5921.647536,3701.029710,-74004.825107
26320.508044,-6217.729913,2812.782580,-74004.825107
26320.510621,2072.576638,1332.370696,-76762.768900
26320.513198,-3997.112087,0.000000,-75230.577904
26320.515775,1924.535449,-2368.659014,-74924.139704
26320.518351,5329.482782,8142.265362,-74158.044206
26320.520928,-2072.576638,10658.965565,-75996.673402
26320.523510,-7402.059420,2664.741391,-75690.235202
26320.526091,10807.006753,8586.388927,-73545.167808
26320.528672,1480.411884,9474.636058,-74770.920605
26320.531253,5033.400406,9326.594869,-75690.235202
26320.533835,10807.006753,8290.306550,-75537.016103
26320.536416,13915.871710,15100.201217,-74158.044206
26320.538997,-5477.523971,12435.459826,-73085.510509
26320.541578,8438.347739,10658.965565,-74924.139704
26320.544160,-1480.411884,5477.523971,-76149.892501
26320.546741,5477.523971,7994.224174,-73391.948708
26320.549322,6809.894666,5625.565159,-74311.263306
26320.551903,9178.553681,7846.182985,-75537.016103
26320.554485,6957.935855,11103.089130,-72779.072310
26320.557066,-3256.906145,9178.553681,-73085.510509
26320.559647,7846.182985,7698.141797,-74770.920605
26320.562228,-1184.329507,4589.276840,-76456.330700
26320.564810,10362.883188,11991.336260,-75077.358804
26320.567391,7105.977043,9770.718434,-75383.797003
26320.569972,6069.688724,6957.935855,-76456.330700
26320.572553,2516.700203,5033.400406,-75077.358804
26320.575135,-3404.947333,7402.059420,-73391.948708
26320.577716,6809.894666,15396.283594,-74770.920605
26320.580297,12583.501014,20725.766376,-75690.235202
26320.582878,15544.324782,23094.425390,-73698.386908
26320.585459,740.205942,7550.100608,-74464.482406
26320.588041,2072.576638,5773.606348,-74924.139704
26320.590622,-14063.912898,-148.041188,-76149.892501
26320.593203,-2368.659014,-5181.441594,-77069.207099
26320.595784,-2664.741391,-2960.823768,-77069.207099
26320.598366,17616.901420,3108.864956,-75843.454302
26320.600947,148.041188,3849.070898,-75230.577904
26320.603528,-888.247130,6069.688724,-74004.825107
26320.606109,-15248.242405,5181.441594,-75537.016103
26320.608691,-3404.947333,8734.430116,-74004.825107
26320.611272,6661.853478,6069.688724,-75996.673402
26320.613853,8142.265362,-592.164754,-78601.398095
26320.616434,2072.576638,740.205942,-74464.482406
26320.619016,-3552.988522,1480.411884,-73698.386908
26320.621597,-9918.759623,6217.729913,-75996.673402
26320.624178,-4589.276840,6957.935855,-78448.178995
26320.626762,1628.453072,4145.153275,-74617.701505
26320.629346,7402.059420,4441.235652,-74004.825107
26320.631929,-1776.494261,-888.247130,-77528.864398
26320.634513,-2664.741391,1184.329507,-76915.987999
26320.637097,-6957.935855,4145.153275,-73851.606007
26320.639681,-3404.947333,2220.617826,-75843.454302
26320.642265,-4737.318029,592.164754,-77528.864398
26320.644849,-1924.535449,-3256.906145,-75230.577904
26320.647432,11695.253884,8438.347739,-73391.948708
26320.650016,-6809.894666,7994.224174,-75383.797003
26320.652600,-592.164754,5033.400406,-76915.987999
26320.655184,-148.041188,1480.411884,-74770.920605
26320.657768,9474.636058,12435.459826,-73391.948708
26320.660351,-444.123565,9326.594869,-75230.577904
26320.662935,13767.830521,11399.171507,-75230.577904
26320.665519,14656.077652,14359.995275,-73545.167808
26320.668103,-5921.647536,11695.253884,-73391.948708
26320.670687,8290.306550,12435.459826,-74617.701505
26320.673270,-4737.318029,6365.771101,-75996.673402
26320.675854,4885.359217,8438.347739,-74770.920605
26320.678438,3997.112087,7254.018232,-73391.948708
26320.681022,11991.336260,7550.100608,-77069.207099
26320.683606,6661.853478,5921.647536,-77222.426198
26320.686189,-148.041188,10658.965565,-73085.510509
26320.688773,7846.182985,8290.306550,-73698.386908
26320.691357,-2960.823768,7550.100608,-75077.358804
26320.693941,11695.253884,12435.459826,-74311.263306
26320.696525,6217.729913,9770.718434,-74924.139704
26320.699108,7402.059420,7550.100608,-76456.330700
26320.701692,5329.482782,5773.606348,-74158.044206
26320.704276,-3701.029710,7254.018232,-73851.606007
26320.706860,12583.501014,17616.901420,-74464.482406
26320.709444,11251.130318,21465.972318,-75690.235202
26320.712027,10658.965565,20133.601622,-74158.044206
26320.714611,-1184.329507,7846.182985,-72932.291410
26320.717195,3256.906145,5477.523971,-74004.825107
26320.719779,-17468.860231,-1628.453072,-76149.892501
26320.722363,888.247130,-2220.617826,-76609.549800
26320.724947,148.041188,-1924.535449,-77835.302597
26320.727530,17764.942608,5477.523971,-75843.454302
26320.730116,-7846.182985,2072.576638,-75690.235202
26320.732702,-5033.400406,5181.441594,-75537.016103
26320.735288,-11547.212695,5773.606348,-75383.797003
26320.737874,-4145.153275,9326.594869,-74770.920605
26320.740460,8734.430116,6513.812290,-76915.987999
26320.743046,2072.576638,-2220.617826,-77069.207099
26320.745631,2220.617826,-1036.288319,-74004.825107
26320.748217,-8586.388927,4737.318029,-72779.072310
26320.750803,-8438.347739,5625.565159,-77528.864398
26320.753389,-4441.235652,7105.977043,-77835.302597
26320.755975,8290.306550,6809.894666,-72779.072310
26320.758561,1776.494261,2220.617826,-74158.044206
26320.761147,2368.659014,1184.329507,-77835.302597
26320.763733,-5033.400406,1924.535449,-74617.701505
26320.766318,-9178.553681,2220.617826,-74924.139704
26320.768904,-3552.988522,2220.617826,-77069.207099
26320.771490,-6957.935855,-4145.153275,-78448.178995
26320.774076,17320.819043,3404.947333,-74617.701505
26320.776662,-3404.947333,6809.894666,-75077.358804
26320.779248,-5329.482782,8734.430116,-76456.330700
26320.781834,-1184.329507,-296.082377,-75843.454302
26320.784419,3997.112087,13915.871710,-73391.948708
26320.787005,1628.453072,12287.418637,-75077.358804
26320.789591,13619.789333,12139.377449,-75230.577904
26320.792177,15840.407159,12731.542202,-73391.948708
26320.794763,1480.411884,13619.789333,-73238.729609
26320.797349,1776.494261,11399.171507,-73391.948708
26320.799935,-444.123565,6365.771101,-76915.987999
26320.802521,2220.617826,8290.306550,-76149.892501
26320.805106,5921.647536,7994.224174,-73545.167808
26320.807692,11251.130318,7994.224174,-76609.549800
26320.810278,7254.018232,5033.400406,-77375.645298
26320.812864,1776.494261,9770.718434,-72932.291410
26320.815450,2368.659014,10362.883188,-72625.853210
26320.818036,1184.329507,3552.988522,-77528.864398
26320.820622,9030.512492,11843.295072,-75996.673402
26320.823208,5033.400406,10066.800811,-75077.358804
26320.825793,8290.306550,8142.265362,-75537.016103
26320.828379,3256.906145,3701.029710,-75230.577904
26320.830965,-296.082377,6217.729913,-74311.263306
26320.833524,8438.347739,14063.912898,-74004.825107
26320.836083,13175.665768,22650.301825,-75077.358804
26320.838642,5921.647536,20873.807564,-75537.016103
26320.841200,1480.411884,10510.924376,-73238.729609
26320.843759,5181.441594,8438.347739,-72779.072310
26320.846318,-15840.407159,-1036.288319,-77222.426198
26320.848877,148.041188,-3849.070898,-76456.330700
26320.851436,-3256.906145,-3849.070898,-77528.864398
26320.853994,19837.519246,4145.153275,-75690.235202
26320.856553,-11251.130318,2516.700203,-74924.139704
26320.859112,-2368.659014,3404.947333,-75537.016103
26320.861671,-14211.954086,5477.523971,-74464.482406
26320.864230,-3997.112087,8586.388927,-74464.482406
26320.866788,5181.441594,8438.347739,-76149.892501
26320.869347,5477.523971,-1184.329507,-77988.521696
26320.871906,5181.441594,-3108.864956,-73851.606007
26320.874465,-11103.089130,2220.617826,-72012.976812
26320.877024,-3404.947333,5033.400406,-76303.111601
26320.879583,-11695.253884,8142.265362,-77375.645298
26320.882141,9770.718434,6069.688724,-73851.606007
26320.884700,1776.494261,3701.029710,-75230.577904
26320.887259,1628.453072,1628.453072,-77222.426198
26320.889818,-5181.441594,1776.494261,-75230.577904
26320.892377,-6365.771101,3849.070898,-74464.482406
26320.894935,-9030.512492,-296.082377,-75996.673402
26320.897494,-3552.988522,-3849.070898,-77069.207099
26320.900053,19097.313304,5477.523971,-74464.482406
26320.902612,-888.247130,9918.759623,-74004.825107
26320.905171,-10658.965565,3997.112087,-77682.083497
26320.907729,11547.212695,-444.123565,-76609.549800
26320.910288,-3701.029710,10955.047942,-73698.386908
26320.912847,7550.100608,9622.677246,-75843.454302
26320.915406,11103.089130,8438.347739,-76303.111601
26320.917965,15248.242405,14211.954086,-73698.386908
26320.920523,-296.082377,13027.624579,-72625.853210
26320.923082,3849.070898,11843.295072,-73851.606007
26320.925641,-3404.947333,4737.318029,-76456.330700
26320.928200,4589.276840,9770.718434,-75537.016103
26320.930759,6365.771101,9770.718434,-73698.386908
26320.933318,9474.636058,6809.894666,-76915.987999
26320.935883,7550.100608,9918.759623,-75996.673402
26320.938448,1628.453072,7994.224174,-72932.291410
26320.941013,888.247130,6661.853478,-75077.358804
26320.943579,3404.947333,6661.853478,-76915.987999
26320.946144,7550.100608,13323.706956,-76303.111601
26320.948709,7846.182985,11695.253884,-75077.358804
26320.951274,2812.782580,5033.400406,-75537.016103
26320.953840,2664.741391,4293.194464,-74311.263306
26320.956405,5033.400406,10066.800811,-72625.853210
26320.958970,10658.965565,20873.807564,-73851.606007
26320.961535,8734.430116,25315.043216,-74770.920605
26320.964101,2072.576638,13323.706956,-75230.577904
26320.966666,6365.771101,10214.842000,-72779.072310
26320.969231,-7550.100608,4589.276840,-73545.167808
26320.971797,444.123565,-7846.182985,-77528.864398
26320.974362,-8882.471304,-4737.318029,-77069.207099
26320.976927,15544.324782,2220.617826,-75690.235202
26320.979492,1184.329507,3404.947333,-75996.673402
26320.982058,-296.082377,3701.029710,-75077.358804
26320.984623,-11991.336260,3997.112087,-75383.797003
26320.987188,-9326.594869,7254.018232,-73698.386908
26320.989753,4737.318029,8586.388927,-74770.920605
26320.992319,5921.647536,3849.070898,-77988.521696
26320.994884,2220.617826,-2368.659014,-76149.892501
26320.997449,-3108.864956,888.247130,-73085.510509
26321.000015,-5033.400406,4589.276840,-75230.577904
26321.002580,-8882.471304,8142.265362,-79367.493593
26321.005145,2368.659014,5033.400406,-75843.454302
26321.007710,3849.070898,5181.441594,-74924.139704
26321.010276,1036.288319,1776.494261,-77069.207099
26321.012841,-4145.153275,-148.041188,-76762.768900
26321.015406,-4145.153275,3108.864956,-74311.263306
26321.017971,-12435.459826,-1036.288319,-76149.892501
26321.020537,-3701.029710,-3701.029710,-77682.083497
26321.023102,17616.901420,6661.853478,-74617.701505
26321.025667,1036.288319,9918.759623,-74770.920605
26321.028233,-13767.830521,3849.070898,-76762.768900
26321.030798,17468.860231,1332.370696,-76303.111601
26321.033363,-6217.729913,9918.759623,-74311.263306
26321.035928,8586.388927,9030.512492,-75537.016103
26321.038499,14804.118840,9326.594869,-76456.330700
26321.041070,9326.594869,12731.542202,-74770.920605
26321.043641,3849.070898,14063.912898,-71400.100414
26321.046212,2072.576638,10510.924376,-74770.920605
26321.048783,-1628.453072,5773.606348,-76762.768900
26321.051354,-296.082377,9474.636058,-74158.044206
26321.053925,6957.935855,9178.553681,-74311.263306
26321.056496,5921.647536,5773.606348,-77069.207099
26321.059067,6809.894666,9178.553681,-75383.797003
26321.061638,3256.906145,8142.265362,-72319.415011
26321.064209,296.082377,2516.700203,-75077.358804
26321.066780,3849.070898,10362.883188,-73851.606007
26321.069351,3256.906145,12583.501014,-74617.701505
26321.071922,10510.924376,11103.089130,-75383.797003
26321.074493,2960.823768,6957.935855,-74617.701505
26321.077064,4885.359217,5921.647536,-74464.482406
26321.079635,8142.265362,12879.583391,-72472.634111
26321.082205,11103.089130,22946.384202,-73851.606007
26321.084776,1184.329507,20281.642811,-77069.207099
26321.087347,3849.070898,11695.253884,-74924.139704
26321.089918,6217.729913,11103.089130,-72012.976812
26321.092489,-13027.624579,-4737.318029,-77069.207099
26321.095060,-148.041188,-6513.812290,-77069.207099
26321.097631,-2220.617826,-2664.741391,-75843.454302
26321.100202,13471.748144,4293.194464,-76609.549800
26321.102773,-6069.688724,3108.864956,-75690.235202
26321.105344,-4293.194464,3404.947333,-75537.016103
26321.107915,-10066.800811,6217.729913,-74158.044206
26321.110486,-296.082377,8734.430116,-73545.167808
26321.113057,4293.194464,5329.482782,-77528.864398
26321.115628,3849.070898,888.247130,-77528.864398
26321.118199,4145.153275,1036.288319,-72166.195912
26321.120770,-12139.377449,1332.370696,-72779.072310
26321.123341,-4589.276840,7994.224174,-76303.111601
26321.125912,-296.082377,5329.482782,-75230.577904
26321.128483,1924.535449,4737.318029,-74464.482406
26321.131054,1184.329507,2220.617826,-76456.330700
26321.133625,-148.041188,-592.164754,-78141.740796
26321.136196,-2220.617826,592.164754,-76303.111601
26321.138766,-14063.912898,-1480.411884,-75383.797003
26321.141341,-6957.935855,-3552.988522,-75996.673402
26321.143916,14359.995275,3404.947333,-75230.577904
26321.146491,444.123565,10807.006753,-74158.044206
26321.149066,-15988.448347,3404.947333,-75537.016103
26321.151641,20429.683999,1480.411884,-76915.987999
26321.154216,-7105.977043,12731.542202,-74158.044206
26321.156790,-2516.700203,11547.212695,-73391.948708
26321.159365,19837.519246,10066.800811,-76456.330700
26321.161940,12139.377449,12879.583391,-74617.701505
26321.164515,6513.812290,13619.789333,-71706.538613
26321.167090,1480.411884,10807.006753,-74617.701505
26321.169665,-2368.659014,6513.812290,-76609.549800
26321.172239,2516.700203,10658.965565,-73851.606007
26321.174814,5921.647536,6809.894666,-74004.825107
26321.177389,13619.789333,9030.512492,-75843.454302
26321.179964,4145.153275,7105.977043,-75690.235202
26321.182539,4589.276840,7846.182985,-72472.634111
26321.185114,1480.411884,3701.029710,-73851.606007
26321.187688,5477.523971,10510.924376,-77222.426198
26321.190263,3404.947333,10658.965565,-76456.330700
26321.192838,9918.759623,11695.253884,-75230.577904
26321.195413,3552.988522,5477.523971,-75996.673402
26321.197988,6957.935855,6957.935855,-74617.701505
26321.200563,9474.636058,14063.912898,-73085.510509
26321.203137,7105.977043,23686.590144,-74464.482406
26321.205712,2368.659014,16876.695478,-77375.645298
26321.208287,592.164754,10807.006753,-73238.729609
26321.210862,3404.947333,7105.977043,-73085.510509
26321.213437,-11399.171507,-8882.471304,-78754.617194
26321.216012,-1332.370696,-5773.606348,-76915.987999
26321.218587,-1332.370696,-444.123565,-76149.892501
26321.221161,10362.883188,4737.318029,-76303.111601
26321.223736,-5625.565159,2812.782580,-75537.016103
26321.226311,-7994.224174,3108.864956,-75996.673402
26321.228886,-5033.400406,6513.812290,-73085.510509
26321.231461,-296.082377,7846.182985,-73698.386908
26321.234036,5181.441594,5181.441594,-77375.645298
26321.236610,4737.318029,-148.041188,-76762.768900
26321.239185,-1480.411884,-1036.288319,-74004.825107
26321.241760,-5773.606348,3404.947333,-73085.510509
26321.244338,-8438.347739,6069.688724,-77682.083497
26321.246917,1332.370696,6809.894666,-75230.577904
26321.249495,1628.453072,4885.359217,-73391.948708
26321.252073,4441.235652,2072.576638,-76762.768900
26321.254651,-4885.359217,-1184.329507,-77835.302597
26321.257229,-6217.729913,1036.288319,-75230.577904
26321.259808,-10510.924376,-2960.823768,-75690.235202
26321.262386,1628.453072,-148.041188,-76762.768900
26321.264964,12731.542202,6957.935855,-75383.797003
26321.267542,740.205942,10807.006753,-73545.167808
26321.270120,-13027.624579,2664.741391,-75996.673402
26321.272699,10066.800811,14508.036463,-74464.482406
26321.275277,-12583.501014,11843.295072,-73545.167808
26321.277855,22058.137072,10955.047942,-75537.016103
26321.280433,11547.212695,9326.594869,-76609.549800
26321.283011,1184.329507,11843.295072,-74924.139704
26321.285590,6809.894666,11399.171507,-73085.510509
26321.288168,4145.153275,9474.636058,-76303.111601
26321.290746,-3256.906145,6365.771101,-76762.768900
26321.293324,-888.247130,9918.759623,-72319.415011
26321.295902,11251.130318,7402.059420,-76609.549800
26321.298481,10658.965565,8882.471304,-77375.645298
26321.301059,0.000000,7550.100608,-74617.701505
26321.303637,4441.235652,6957.935855,-74004.825107
26321.306215,5773.606348,6217.729913,-75537.016103
26321.308793,0.000000,9770.718434,-76762.768900
26321.311372,7550.100608,13323.706956,-75077.358804
26321.313950,3552.988522,6957.935855,-74311.263306
26321.316528,9326.594869,7105.977043,-74617.701505
26321.319106,9622.677246,10955.047942,-73391.948708
26321.321684,12139.377449,22058.137072,-73238.729609
26321.324263,-2072.576638,17468.860231,-76303.111601
26321.326844,3108.864956,12731.542202,-75690.235202
26321.329425,4737.318029,11103.089130,-72472.634111
26321.332006,-10214.842000,-3552.988522,-75690.235202
26321.334587,-4885.359217,-6661.853478,-77069.207099
26321.337168,-1776.494261,-1924.535449,-75996.673402
26321.339749,11251.130318,5773.606348,-75996.673402
26321.342329,-6513.812290,3552.988522,-76303.111601
26321.344910,-4737.318029,3404.947333,-76303.111601
26321.347491,-6365.771101,3997.112087,-75383.797003
26321.350072,-2072.576638,8586.388927,-73698.386908
26321.352653,444.123565,5921.647536,-76456.330700
26321.355234,3404.947333,444.123565,-76762.768900
26321.357814,-444.123565,-1776.494261,-75230.577904
26321.360395,-5921.647536,4441.235652,-72779.072310
26321.362976,-5477.523971,4885.359217,-77069.207099
26321.365557,-1924.535449,5921.647536,-75843.454302
26321.368138,1480.411884,5921.647536,-73085.510509
26321.370719,2072.576638,2072.576638,-75230.577904
26321.373299,0.000000,-888.247130,-78141.740796
26321.375880,-8290.306550,-1184.329507,-75383.797003
26321.378461,-9622.677246,-3404.947333,-75843.454302
26321.381042,3404.947333,296.082377,-76149.892501
26321.383623,10510.924376,6069.688724,-76303.111601
26321.386204,-2368.659014,10510.924376,-74158.044206
26321.388784,-3997.112087,1184.329507,-78294.959896
26321.391365,18357.107362,14359.995275,-74770.920605
26321.393946,-13175.665768,11251.130318,-74464.482406
26321.396527,23686.590144,12435.459826,-75537.016103
26321.399108,9474.636058,10955.047942,-75383.797003
26321.401689,148.041188,12879.583391,-73545.167808
26321.404269,6365.771101,10214.842000,-72166.195912
26321.406850,3256.906145,7846.182985,-75843.454302
26321.409431,1036.288319,6809.894666,-77069.207099
26321.412012,2812.782580,10066.800811,-72779.072310
26321.414593,10362.883188,9918.759623,-74464.482406
26321.417173,3404.947333,6661.853478,-78294.959896
26321.419754,5033.400406,6661.853478,-73545.167808
26321.422335,-296.082377,4737.318029,-72932.291410
26321.424916,4441.235652,8734.430116,-74924.139704
26321.427497,2664.741391,10510.924376,-75230.577904
26321.430078,6513.812290,12879.583391,-74464.482406
26321.432658,4885.359217,7402.059420,-75077.358804
26321.435239,8438.347739,7550.100608,-75230.577904
26321.437820,9770.718434,15396.283594,-72012.976812
26321.440401,5477.523971,22650.301825,-72932.291410
26321.442982,-1776.494261,15396.283594,-76456.330700
26321.445563,5477.523971,13027.624579,-74311.263306
26321.448143,-2516.700203,5921.647536,-73391.948708
26321.450725,-2516.700203,-7846.182985,-77528.864398
26321.453307,-9770.718434,-8882.471304,-78141.740796
26321.455889,6957.935855,148.041188,-76149.892501
26321.458470,148.041188,4737.318029,-75077.358804
26321.461052,148.041188,2664.741391,-76609.549800
26321.463634,-12879.583391,1480.411884,-76303.111601
26321.466215,-3404.947333,7994.224174,-73085.510509
26321.468797,0.000000,6809.894666,-74004.825107
26321.471379,4145.153275,5329.482782,-76456.330700
26321.473960,592.164754,1628.453072,-75537.016103
26321.476542,1480.411884,740.205942,-73851.606007
26321.479124,-5921.647536,6365.771101,-75230.577904
26321.481706,-7550.100608,4145.153275,-77988.521696
26321.484287,1332.370696,5181.441594,-75537.016103
26321.486869,444.123565,2220.617826,-75077.358804
26321.489451,2072.576638,1776.494261,-77375.645298
26321.492032,-5033.400406,-1480.411884,-76762.768900
26321.494614,-10510.924376,-4145.153275,-75843.454302
26321.497196,-5329.482782,-3404.947333,-75996.673402
26321.499777,10362.883188,7698.141797,-75690.235202
26321.502359,296.082377,9770.718434,-73851.606007
26321.504941,-9622.677246,2960.823768,-75383.797003
26321.507523,19541.436869,8734.430116,-74004.825107
26321.510104,-10658.965565,10510.924376,-74770.920605
26321.512686,12583.501014,13027.624579,-75690.235202
26321.515268,12583.501014,10658.965565,-76149.892501
26321.517849,9918.759623,12879.583391,-75230.577904
26321.520431,5773.606348,11251.130318,-72472.634111
26321.523013,1924.535449,7550.100608,-75230.577904
26321.525595,3404.947333,6513.812290,-76456.330700
26321.528176,1036.288319,9622.677246,-73238.729609
26321.530758,11399.171507,11251.130318,-76303.111601
26321.533342,9918.759623,5773.606348,-77682.083497
26321.535925,296.082377,6217.729913,-75383.797003
26321.538509,4885.359217,8290.306550,-73085.510509
26321.541093,-148.041188,3552.988522,-76609.549800
26321.543676,9326.594869,13767.830521,-75843.454302
26321.546260,2072.576638,10066.800811,-75843.454302
26321.548843,6809.894666,9770.718434,-75537.016103
26321.551427,8586.388927,7846.182985,-75230.577904
26321.554011,6661.853478,16432.571912,-72625.853210
26321.556594,8586.388927,22650.301825,-72932.291410
26321.559178,-5773.606348,13915.871710,-75843.454302
26321.561762,8438.347739,13915.871710,-75230.577904
26321.564345,-7994.224174,4293.194464,-73391.948708
26321.566929,592.164754,-7698.141797,-76915.987999
26321.569513,-9622.677246,-7698.141797,-77682.083497
26321.572096,7550.100608,-148.041188,-76609.549800
26321.574680,-2812.782580,5181.441594,-75230.577904
26321.577264,-1184.329507,3404.947333,-75996.673402
26321.579847,-11991.336260,2072.576638,-76609.549800
26321.582431,-3701.029710,7402.059420,-73545.167808
26321.585015,-592.164754,6513.812290,-75077.358804
26321.587598,6365.771101,5921.647536,-77682.083497
26321.590182,-296.082377,-740.205942,-77375.645298
26321.592766,296.082377,3108.864956,-74158.044206
26321.595349,-2368.659014,4441.235652,-75690.235202
26321.597933,-8142.265362,3997.112087,-75690.235202
26321.600516,2664.741391,5181.441594,-72932.291410
26321.603100,-2220.617826,2368.659014,-74158.044206
26321.605684,4145.153275,-888.247130,-78141.740796
26321.608267,-9474.636058,-2960.823768,-76762.768900
26321.610851,-7698.141797,-3701.029710,-75383.797003
26321.613435,296.082377,-888.247130,-75230.577904
26321.616018,5625.565159,7105.977043,-76303.111601
26321.618602,-8586.388927,6957.935855,-74004.825107
26321.621186,9474.636058,2220.617826,-74770.920605
26321.623769,5921.647536,14952.160028,-74158.044206
26321.626353,-7698.141797,12879.583391,-74924.139704
26321.628937,18061.024985,13471.748144,-74924.139704
26321.631520,9178.553681,12435.459826,-75077.358804
26321.634104,2664.741391,12583.501014,-73545.167808
26321.636688,4885.359217,8734.430116,-73545.167808
26321.639272,4589.276840,6069.688724,-75843.454302
26321.641856,2960.823768,8882.471304,-75996.673402
26321.644440,1332.370696,8734.430116,-74617.701505
26321.647024,7105.977043,8438.347739,-77069.207099
26321.649608,11103.089130,7550.100608,-76762.768900
26321.652192,592.164754,6957.935855,-73851.606007
26321.654776,4441.235652,6809.894666,-73545.167808
26321.657360,5921.647536,9622.677246,-76149.892501
26321.659943,4885.359217,11399.171507,-75996.673402
26321.662527,4441.235652,11103.089130,-73851.606007
26321.665111,7846.182985,8586.388927,-74158.044206
26321.667695,11251.130318,11399.171507,-74617.701505
26321.670279,10955.047942,20133.601622,-72932.291410
26321.672863,-3108.864956,18653.189738,-74158.044206
26321.675447,4293.194464,12879.583391,-76303.111601
26321.678031,-3404.947333,8882.471304,-73545.167808
26321.680615,-2664.741391,-6365.771101,-76303.111601
26321.683199,-8882.471304,-8290.306550,-76762.768900
26321.685783,4589.276840,-3404.947333,-76915.987999
26321.688367,4885.359217,4737.318029,-75077.358804
26321.690951,-3552.988522,4885.359217,-75996.673402
26321.693535,-7698.141797,4145.153275,-75690.235202
26321.696119,-6809.894666,3108.864956,-74924.139704
26321.698703,-2664.741391,6957.935855,-73545.167808
26321.701287,4885.359217,6513.812290,-78141.740796
26321.703871,5477.523971,-444.123565,-79214.274493
26321.706455,-4589.276840,-2072.576638,-76915.987999
26321.709039,-1480.411884,5625.565159,-74464.482406
26321.711623,-6661.853478,3997.112087,-77528.864398
26321.714207,-3552.988522,6957.935855,-74004.825107
26321.716791,1332.370696,5921.647536,-72625.853210
26321.719375,-592.164754,-148.041188,-76609.549800
26321.721958,-6809.894666,-3108.864956,-77069.207099
26321.724542,-9326.594869,-5181.441594,-75077.358804
26321.727126,3108.864956,1480.411884,-75690.235202
26321.729710,4885.359217,4589.276840,-76609.549800
26321.732294,1924.535449,9178.553681,-75537.016103
26321.734878,-6957.935855,-1628.453072,-75537.016103
26321.737462,19837.519246,15248.242405,-73085.510509
26321.740047,-8438.347739,11843.295072,-75383.797003
26321.742631,19837.519246,13619.789333,-74770.920605
26321.745216,7698.141797,13471.748144,-74464.482406
26321.747800,1924.535449,13619.789333,-74004.825107
26321.750385,4885.359217,9326.594869,-73545.167808
26321.752969,1480.411884,7254.018232,-75690.235202
26321.755554,3404.947333,6809.894666,-76762.768900
26321.758138,2368.659014,9622.677246,-75077.358804
26321.760723,10510.924376,9622.677246,-74924.139704
26321.763307,4885.359217,6365.771101,-75996.673402
26321.765892,5181.441594,6957.935855,-74158.044206
26321.768476,1924.535449,5181.441594,-73545.167808
26321.771061,3701.029710,8290.306550,-75690.235202
26321.773645,9030.512492,13471.748144,-75383.797003
26321.776230,1184.329507,9474.636058,-73851.606007
26321.778815,13471.748144,10066.800811,-73851.606007
26321.781399,10955.047942,12731.542202,-74617.701505
26321.783984,7105.977043,21317.931130,-73238.729609
26321.786568,-1036.288319,16136.489536,-75077.358804
26321.789153,1776.494261,16136.489536,-74770.920605
26321.791737,-888.247130,7994.224174,-74770.920605
26321.794322,-3552.988522,-6661.853478,-75996.673402
26321.796906,-6809.894666,-8586.388927,-76456.330700
26321.799491,4589.276840,-3997.112087,-76609.549800
26321.802075,-444.123565,5477.523971,-75537.016103
26321.804660,-1036.288319,4293.194464,-76456.330700
26321.807244,-11843.295072,3701.029710,-76609.549800
26321.809829,-888.247130,6069.688724,-72779.072310
26321.812413,-4737.318029,5477.523971,-74770.920605
26321.814998,7846.182985,4589.276840,-77835.302597
26321.817582,-1036.288319,4145.153275,-77069.207099
26321.820167,1480.411884,1480.411884,-74464.482406
26321.822751,-10066.800811,5329.482782,-75690.235202
26321.825336,-740.205942,4293.194464,-77835.302597
26321.827920,-3404.947333,3701.029710,-74924.139704
26321.830505,2960.823768,4885.359217,-73851.606007
26321.833089,-444.123565,-148.041188,-76915.987999
26321.835674,-8142.265362,-6069.688724,-78294.959896
26321.838258,-6217.729913,-3701.029710,-75077.358804
26321.840843,3552.988522,3108.864956,-75230.577904
26321.843427,4441.235652,8142.265362,-75996.673402
26321.846011,-11251.130318,3552.988522,-74311.263306
26321.848595,18505.148550,8142.265362,-73391.948708
26321.851179,-4589.276840,11251.130318,-75077.358804
26321.853763,3404.947333,11695.253884,-75383.797003
26321.856347,11843.295072,11547.212695,-74617.701505
26321.858931,11991.336260,14508.036463,-74464.482406
26321.861515,4293.194464,11991.336260,-74004.825107
26321.864099,5921.647536,9326.594869,-74464.482406
26321.866683,1332.370696,6069.688724,-76149.892501
26321.869267,4737.318029,8734.430116,-75230.577904
26321.871851,6809.894666,9918.759623,-73391.948708
26321.874435,1036.288319,6661.853478,-75843.454302
26321.877019,10955.047942,7402.059420,-75996.673402
26321.879603,148.041188,5329.482782,-73391.948708
26321.882187,5181.441594,7846.182985,-73391.948708
26321.884771,2072.576638,10807.006753,-76915.987999
26321.887355,2220.617826,11251.130318,-75077.358804
26321.889939,13175.665768,11251.130318,-73391.948708
26321.892523,4885.359217,10807.006753,-74770.920605
26321.895107,16432.571912,19541.436869,-74004.825107
26321.897691,-7846.182985,16136.489536,-74924.139704
26321.900275,7105.977043,14952.160028,-74924.139704
26321.902859,296.082377,13471.748144,-74617.701505
26321.905443,-3552.988522,-888.247130,-77222.426198
26321.908027,-6809.894666,-7698.141797,-75996.673402
26321.910611,740.205942,-4589.276840,-76456.330700
26321.913195,6661.853478,2960.823768,-76456.330700
26321.915779,-5033.400406,4293.194464,-75230.577904
26321.918364,-2960.823768,5329.482782,-75996.673402
26321.920948,-9918.759623,1776.494261,-75690.235202
26321.923532,296.082377,7254.018232,-73085.510509
26321.926116,740.205942,3701.029710,-75537.016103
26321.928700,1628.453072,740.205942,-79367.493593
26321.931284,2220.617826,4441.235652,-74770.920605
26321.933868,-2368.659014,5181.441594,-74770.920605
26321.936452,-10658.965565,3256.906145,-76915.987999
26321.939036,1480.411884,4589.276840,-74617.701505
26321.941620,-6513.812290,888.247130,-74311.263306
26321.944204,5773.606348,3256.906145,-75843.454302
26321.946787,-12879.583391,-5181.441594,-78141.740796
26321.949371,-2812.782580,-3108.864956,-75690.235202
26321.951954,4737.318029,3701.029710,-74464.482406
26321.954538,1628.453072,6365.771101,-76915.987999
26321.957122,-7550.100608,3256.906145,-76915.987999
26321.959705,12435.459826,11103.089130,-72166.195912
26321.962289,-444.123565,12731.542202,-75537.016103
26321.964872,2960.823768,11695.253884,-76609.549800
26321.967456,15248.242405,11251.130318,-75690.235202
26321.970039,9030.512492,13471.748144,-73085.510509
26321.972623,2664.741391,12139.377449,-73851.606007
26321.975207,4145.153275,9326.594869,-75230.577904
26321.977790,4293.194464,8734.430116,-75383.797003
26321.980374,-888.247130,10066.800811,-73085.510509
26321.982957,2220.617826,8290.306550,-73238.729609
26321.985541,13323.706956,10955.047942,-74464.482406
26321.988124,-148.041188,5477.523971,-75230.577904
26321.990708,7105.977043,7402.059420,-73085.510509
26321.993291,2072.576638,6217.729913,-74158.044206
26321.995875,5921.647536,10214.842000,-76762.768900
26321.998459,6513.812290,11991.336260,-74617.701505
26322.001042,7254.018232,9770.718434,-73545.167808
26322.003626,13619.789333,14063.912898,-75537.016103
26322.006209,5625.565159,18209.066173,-74311.263306
26322.008793,-1184.329507,15840.407159,-74464.482406
26322.011376,3552.988522,14656.077652,-73545.167808
26322.013960,-1924.535449,10658.965565,-75077.358804
26322.016544,-2368.659014,-6957.935855,-76762.768900
26322.019127,-7994.224174,-7994.224174,-75383.797003
26322.021711,5033.400406,-4737.318029,-76762.768900
26322.024294,-2368.659014,4441.235652,-75537.016103
26322.026878,-444.123565,4145.153275,-76303.111601
26322.029461,-12583.501014,4589.276840,-75537.016103
26322.032045,-2072.576638,5329.482782,-73085.510509
26322.034629,-5033.400406,5625.565159,-74617.701505
26322.037212,6957.935855,5477.523971,-77682.083497
26322.039796,3552.988522,1924.535449,-77835.302597
26322.042379,-3404.947333,5625.565159,-75230.577904
26322.044963,-2368.659014,6809.894666,-75077.358804
26322.047546,-7994.224174,740.205942,-76609.549800
26322.050130,-148.041188,4737.318029,-74004.825107
26322.052713,1184.329507,3256.906145,-74464.482406
26322.055296,-5625.565159,-888.247130,-78907.836294
26322.057879,-3552.988522,-6365.771101,-77835.302597
26322.060462,-1776.494261,-1184.329507,-73851.606007
26322.063045,5921.647536,3849.070898,-75383.797003
26322.065629,-8438.347739,4145.153275,-77069.207099
26322.068212,4441.235652,1184.329507,-75077.358804
26322.070795,11991.336260,13915.871710,-72932.291410
26322.073378,-3997.112087,12879.583391,-73698.386908
26322.075961,15988.448347,14063.912898,-76303.111601
26322.078545,10362.883188,13175.665768,-73391.948708
26322.081128,5477.523971,16136.489536,-73085.510509
26322.083711,-1036.288319,8586.388927,-74924.139704
26322.086294,6217.729913,6661.853478,-76915.987999
26322.088877,1924.535449,7994.224174,-75383.797003
26322.091460,2812.782580,7402.059420,-74770.920605
26322.094044,7105.977043,10214.842000,-75843.454302
26322.096627,7254.018232,8882.471304,-76303.111601
26322.099210,6069.688724,5921.647536,-74464.482406
26322.101793,1628.453072,7254.018232,-72319.415011
26322.104376,6809.894666,8438.347739,-75690.235202
26322.106960,5773.606348,9326.594869,-75843.454302
26322.109543,8734.430116,11547.212695,-73085.510509
26322.112126,10955.047942,13027.624579,-72779.072310
26322.114709,10066.800811,17616.901420,-73698.386908
26322.117292,-444.123565,15988.448347,-75077.358804
26322.119875,444.123565,13323.706956,-74464.482406
26322.122459,5625.565159,15840.407159,-74004.825107
26322.125042,-9326.594869,-3256.906145,-77835.302597
26322.127625,-5921.647536,-7994.224174,-76456.330700
26322.130208,1480.411884,-5329.482782,-75996.673402
26322.132791,6069.688724,2960.823768,-76609.549800
26322.135374,-4589.276840,3849.070898,-76149.892501
26322.137958,-5181.441594,6217.729913,-75996.673402
26322.140541,-6513.812290,2072.576638,-75383.797003
26322.143124,-3849.070898,6957.935855,-73238.729609
26322.145707,2220.617826,3404.947333,-77682.083497
26322.148290,-2072.576638,1628.453072,-76149.892501
26322.150874,7846.182985,3701.029710,-72932.291410
26322.153456,-11991.336260,2220.617826,-75383.797003
26322.156039,-888.247130,5033.400406,-75537.016103
26322.158622,-7846.182985,1332.370696,-74004.825107
26322.161205,5033.400406,5625.565159,-73238.729609
26322.163787,-8142.265362,1036.288319,-75996.673402
26322.166370,-888.247130,-6217.729913,-78601.398095
26322.168953,-1184.329507,-592.164754,-74924.139704
26322.171536,1628.453072,3404.947333,-75383.797003
26322.174118,-6513.812290,4441.235652,-77528.864398
26322.176701,-888.247130,740.205942,-76149.892501
26322.179284,18653.189738,15100.201217,-73545.167808
26322.181867,-5921.647536,12583.501014,-73391.948708
26322.184449,18949.272115,14359.995275,-76303.111601
26322.187032,10510.924376,11103.089130,-75230.577904
26322.189615,8882.471304,15988.448347,-73238.729609
26322.192198,3404.947333,10066.800811,-74311.263306
26322.194780,4737.318029,5625.565159,-76762.768900
26322.197363,5477.523971,7254.018232,-74924.139704
26322.199946,3552.988522,7402.059420,-72779.072310
26322.202529,2812.782580,7994.224174,-74924.139704
26322.205111,11251.130318,7105.977043,-76456.330700
26322.207694,-296.082377,6365.771101,-74464.482406
26322.210277,5625.565159,9030.512492,-71859.757712
26322.212860,7402.059420,10214.842000,-76609.549800
26322.215442,5773.606348,10214.842000,-76456.330700
26322.218025,10362.883188,12287.418637,-73391.948708
26322.220608,7550.100608,13175.665768,-73085.510509
26322.223191,12731.542202,19541.436869,-74770.920605
26322.225773,-5477.523971,13915.871710,-75383.797003
26322.228356,7254.018232,15544.324782,-74617.701505
26322.230939,-1924.535449,11991.336260,-74311.263306
26322.233522,0.000000,-5773.606348,-78448.178995
26322.236104,-9178.553681,-8882.471304,-76609.549800
26322.238687,8438.347739,-3404.947333,-75996.673402
26322.241270,740.205942,4293.194464,-76149.892501
26322.243853,-1480.411884,3552.988522,-75843.454302
26322.246436,-9918.759623,6217.729913,-75230.577904
26322.249018,-3552.988522,4293.194464,-74004.825107
26322.251601,-4441.235652,6365.771101,-74617.701505
26322.254184,7254.018232,6069.688724,-76609.549800
26322.256766,4737.318029,2812.782580,-76609.549800
26322.259347,-2368.659014,3256.906145,-74617.701505
26322.261929,-3997.112087,3552.988522,-76915.987999
26322.264511,-5921.647536,2072.576638,-78294.959896
26322.267093,-2368.659014,2072.576638,-75230.577904
26322.269674,-888.247130,4885.359217,-73698.386908
26322.272256,-7550.100608,-3404.947333,-78754.617194
26322.274838,2368.659014,-3997.112087,-77528.864398
26322.277420,3256.906145,2664.741391,-74464.482406
26322.280002,592.164754,4441.235652,-75230.577904
26322.282583,-14063.912898,-148.041188,-76915.987999
26322.285165,14211.954086,6069.688724,-74464.482406
26322.287747,-2516.700203,11251.130318,-74004.825107
26322.290329,8586.388927,12139.377449,-75383.797003
26322.292910,9918.759623,12139.377449,-76303.111601
26322.295492,14063.912898,16432.571912,-73085.510509
26322.298074,-2220.617826,11991.336260,-72779.072310
26322.300656,6661.853478,10362.883188,-75690.235202
26322.303238,3404.947333,6661.853478,-76149.892501
26322.305819,5921.647536,7846.182985,-74770.920605
26322.308401,1184.329507,6217.729913,-74924.139704
26322.310983,11399.171507,10955.047942,-76303.111601
26322.313565,1480.411884,5773.606348,-76609.549800
26322.316146,-1184.329507,6365.771101,-73545.167808
26322.318728,6661.853478,11695.253884,-72625.853210
26322.321310,4293.194464,9030.512492,-76762.768900
26322.323892,12287.418637,12287.418637,-75077.358804
26322.326474,9178.553681,10807.006753,-72472.634111
26322.329055,9030.512492,14952.160028,-73238.729609
26322.331637,5181.441594,15248.242405,-74617.701505
26322.334219,-4441.235652,15396.283594,-74311.263306
26322.336801,6513.812290,17616.901420,-73698.386908
26322.339383,-11251.130318,-2812.782580,-77375.645298
26322.341964,888.247130,-5625.565159,-75537.016103
26322.344546,-3701.029710,-10066.800811,-75230.577904
26322.347128,8586.388927,1480.411884,-75843.454302
26322.349710,-7698.141797,1628.453072,-77528.864398
26322.352291,-1184.329507,4885.359217,-77069.207099
26322.354873,-10510.924376,1776.494261,-75383.797003
26322.357455,1184.329507,6957.935855,-72779.072310
26322.360037,-888.247130,4589.276840,-76303.111601
26322.362618,8142.265362,5181.441594,-77528.864398
26322.365199,-3701.029710,5625.565159,-74004.825107
26322.367780,1036.288319,6957.935855,-74770.920605
26322.370361,-10807.006753,2072.576638,-77835.302597
26322.372942,-3256.906145,2516.700203,-73698.386908
26322.375523,-3997.112087,3701.029710,-73085.510509
26322.378104,-3256.906145,-1776.494261,-76609.549800
26322.380685,740.205942,-5329.482782,-78141.740796
26322.383266,5033.400406,1480.411884,-74158.044206
26322.385847,-740.205942,5033.400406,-73391.948708
26322.388428,-11251.130318,-2368.659014,-77988.521696
26322.391009,14656.077652,10510.924376,-74158.044206
26322.393590,-4293.194464,12435.459826,-73085.510509
26322.396171,13175.665768,13471.748144,-75230.577904
26322.398752,10362.883188,11695.253884,-77069.207099
26322.401334,11399.171507,13915.871710,-73545.167808
26322.403915,-1184.329507,11843.295072,-72625.853210
26322.406496,5773.606348,9326.594869,-75077.358804
26322.409077,5477.523971,6513.812290,-77375.645298
26322.411658,3108.864956,9918.759623,-73391.948708
26322.414239,7550.100608,11547.212695,-71859.757712
26322.416820,4589.276840,3849.070898,-76762.768900
26322.419401,3108.864956,6365.771101,-74924.139704
26322.421982,4145.153275,8586.388927,-71246.881314
26322.424563,3997.112087,10362.883188,-74158.044206
26322.427144,8586.388927,11547.212695,-76915.987999
26322.429725,7846.182985,9474.636058,-74158.044206
26322.432306,11103.089130,12583.501014,-72625.853210
26322.434887,5033.400406,15544.324782,-73391.948708
26322.437468,-148.041188,14952.160028,-75537.016103
26322.440049,4145.153275,17320.819043,-74464.482406
26322.442630,2960.823768,18209.066173,-73391.948708
26322.445211,-4885.359217,-2220.617826,-77069.207099
26322.447792,-6069.688724,-7698.141797,-76149.892501
26322.450373,10066.800811,-4589.276840,-75230.577904
26322.452954,-1628.453072,444.123565,-76303.111601
26322.455535,1628.453072,2072.576638,-78141.740796
26322.458116,-12139.377449,5477.523971,-75537.016103
26322.460697,-3849.070898,3997.112087,-73238.729609
26322.463249,-6513.812290,6513.812290,-74464.482406
26322.465800,6513.812290,7846.182985,-76303.111601
26322.468351,444.123565,4441.235652,-77069.207099
26322.470902,1332.370696,5181.441594,-74770.920605
26322.473454,-2812.782580,5033.400406,-74770.920605
26322.476005,-9918.759623,592.164754,-78294.959896
26322.478556,592.164754,2516.700203,-74770.920605
26322.481107,-8142.265362,444.123565,-74004.825107
26322.483659,1036.288319,-3997.112087,-77682.083497
26322.486210,888.247130,-3997.112087,-77835.302597
26322.488761,3552.988522,4145.153275,-74158.044206
26322.491312,-6513.812290,4145.153275,-76456.330700
26322.493864,-6365.771101,-3256.906145,-77682.083497
26322.496415,17320.819043,15396.283594,-72779.072310
26322.498966,-2516.700203,16580.613101,-72319.415011
26322.501517,21169.889941,16284.530724,-75996.673402
26322.504069,9030.512492,12139.377449,-76149.892501
26322.506620,9770.718434,14656.077652,-72779.072310
26322.509171,-1776.494261,7550.100608,-73085.510509
26322.511722,5181.441594,3849.070898,-76456.330700
26322.514274,4885.359217,9474.636058,-77528.864398
26322.516825,10510.924376,11251.130318,-74464.482406
26322.519376,-148.041188,7402.059420,-75537.016103
26322.521927,7846.182985,5921.647536,-77222.426198
26322.524478,1776.494261,5181.441594,-75537.016103
26322.527030,3997.112087,10955.047942,-73698.386908
26322.529581,5773.606348,11251.130318,-76149.892501
26322.532132,10510.924376,11991.336260,-75996.673402
26322.534683,14063.912898,11991.336260,-72472.634111
26322.537235,2960.823768,12435.459826,-72779.072310
26322.539786,7105.977043,17320.819043,-74311.263306
26322.542337,-5329.482782,15396.283594,-75383.797003
26322.544888,10807.006753,21614.013506,-73238.729609
26322.547440,-13471.748144,3849.070898,-75690.235202
26322.549991,5921.647536,-5625.565159,-77528.864398
26322.552542,-10955.047942,-11695.253884,-75996.673402
26322.555093,8142.265362,740.205942,-75996.673402
26322.557645,-6809.894666,2072.576638,-77682.083497
26322.560196,-2220.617826,5181.441594,-77069.207099
26322.562747,-8586.388927,2368.659014,-75383.797003
26322.565274,-2072.576638,6513.812290,-73085.510509
26322.567802,-1480.411884,3849.070898,-77682.083497
26322.570329,7254.018232,6217.729913,-77222.426198
26322.572857,-2368.659014,4589.276840,-75996.673402
26322.575384,592.164754,5625.565159,-73698.386908
26322.577911,-9622.677246,-148.041188,-76762.768900
26322.580439,-5773.606348,2516.700203,-75383.797003
26322.582966,-5921.647536,1628.453072,-73698.386908
26322.585493,-3404.947333,-1036.288319,-75996.673402
26322.588021,3552.988522,-3997.112087,-78601.398095
26322.590548,6957.935855,2960.823768,-74464.482406
26322.593076,-4145.153275,3552.988522,-73238.729609
26322.595603,-7698.141797,-2960.823768,-77682.083497
26322.598130,12583.501014,12731.542202,-73391.948708
26322.600658,-4145.153275,13915.871710,-72472.634111
26322.603185,19837.519246,16136.489536,-75077.358804
26322.605712,9030.512492,12583.501014,-75843.454302
26322.608240,10955.047942,14656.077652,-72932.291410
26322.610767,-2960.823768,9030.512492,-73238.729609
26322.613295,6661.853478,8438.347739,-74924.139704
26322.615822,4441.235652,9474.636058,-75996.673402
26322.618349,3849.070898,7994.224174,-75077.358804
26322.620877,7994.224174,10510.924376,-73698.386908
26322.623404,3108.864956,4441.235652,-75690.235202
26322.625931,6217.729913,7402.059420,-75383.797003
26322.628459,1776.494261,9770.718434,-72472.634111
26322.630986,3552.988522,11103.089130,-74617.701505
26322.633514,13175.665768,12879.583391,-76762.768900
26322.636041,10214.842000,10955.047942,-73238.729609
26322.638568,9474.636058,15100.201217,-72319.415011
26322.641096,3701.029710,15248.242405,-74617.701505
26322.643623,-2516.700203,16136.489536,-76149.892501
26322.646159,6809.894666,20577.725188,-72779.072310
26322.648695,-10362.883188,4145.153275,-75690.235202
26322.651231,1332.370696,-5773.606348,-76915.987999
26322.653767,-8142.265362,-10510.924376,-75996.673402
26322.656304,9770.718434,296.082377,-76303.111601
26322.658840,-7994.224174,2368.659014,-76609.549800
26322.661376,-1628.453072,4885.359217,-76609.549800
26322.663912,-10658.965565,2368.659014,-75690.235202
26322.666448,4145.153275,6069.688724,-72779.072310
26322.668984,-1332.370696,3849.070898,-76149.892501
26322.671520,2072.576638,4589.276840,-77375.645298
26322.674056,4293.194464,6957.935855,-73851.606007
26322.676593,-2664.741391,5033.400406,-73851.606007
26322.679129,-10362.883188,740.205942,-77682.083497
26322.681665,-3404.947333,2368.659014,-75537.016103
26322.684201,-7698.141797,-148.041188,-74924.139704
26322.686737,2516.700203,-2220.617826,-76762.768900
26322.689273,4145.153275,-2072.576638,-77069.207099
26322.691809,4737.318029,2368.659014,-75383.797003
26322.694345,-8586.388927,2812.782580,-73698.386908
26322.696881,-4293.194464,-3701.029710,-77835.302597
26322.699418,13619.789333,14359.995275,-74004.825107
26322.701954,148.041188,17616.901420,-73085.510509
26322.704490,20873.807564,18505.148550,-75383.797003
26322.707026,7254.018232,11991.336260,-76609.549800
26322.709562,9030.512492,14359.995275,-72779.072310
26322.712098,-1332.370696,7698.141797,-73391.948708
26322.714634,3256.906145,7105.977043,-76609.549800
26322.717170,5921.647536,9622.677246,-75230.577904
26322.719706,8734.430116,11399.171507,-72779.072310
26322.722243,-148.041188,4885.359217,-74617.701505
26322.724779,8290.306550,4885.359217,-75383.797003
26322.727315,3404.947333,7846.182985,-73698.386908
26322.729851,1480.411884,10955.047942,-73085.510509
26322.732387,10362.883188,14656.077652,-74770.920605
26322.734923,9178.553681,10214.842000,-76762.768900
26322.737459,14804.118840,11843.295072,-73391.948708
26322.739995,3108.864956,15544.324782,-72625.853210
26322.742532,888.247130,14063.912898,-76609.549800
26322.745068,2960.823768,17468.860231,-75383.797003
26322.747612,740.205942,17024.736666,-73238.729609
26322.750156,-3701.029710,-3997.112087,-77069.207099
26322.752701,-5773.606348,-9770.718434,-78141.740796
26322.755245,2812.782580,-6957.935855,-75383.797003
26322.757789,3849.070898,2516.700203,-74617.701505
26322.760334,-1184.329507,3701.029710,-77682.083497
26322.762878,-9770.718434,5033.400406,-76762.768900
26322.765422,-3701.029710,3552.988522,-72932.291410
26322.767967,-1184.329507,6365.771101,-73851.606007
26322.770511,1480.411884,2368.659014,-79980.369991
26322.773056,1332.370696,6957.935855,-77528.864398
26322.775600,6069.688724,5773.606348,-74617.701505
26322.778144,-7254.018232,3256.906145,-76303.111601
26322.780689,-4145.153275,1480.411884,-77222.426198
26322.783233,-9178.553681,-888.247130,-73851.606007
26322.785777,-1036.288319,-740.205942,-75230.577904
26322.788322,148.041188,-3552.988522,-77988.521696
26322.790866,5625.565159,2812.782580,-75996.673402
26322.793410,-6365.771101,2812.782580,-74311.263306
26322.795955,-11547.212695,-3256.906145,-76456.330700
26322.798499,11251.130318,8142.265362,-74464.482406
26322.801043,-4293.194464,12731.542202,-74158.044206
26322.803588,17172.777854,16136.489536,-75383.797003
26322.806132,9622.677246,13323.706956,-76149.892501
26322.808677,9770.718434,14656.077652,-73545.167808
26322.811221,-740.205942,7698.141797,-72779.072310
26322.813765,3997.112087,6661.853478,-75230.577904
26322.816310,2664.741391,8438.347739,-76456.330700
26322.818854,6217.729913,9622.677246,-74617.701505
26322.821398,11399.171507,10510.924376,-72472.634111
26322.823943,-296.082377,2812.782580,-75230.577904
26322.826487,5329.482782,6809.894666,-75383.797003
26322.829031,3997.112087,10510.924376,-72166.195912
26322.831576,6217.729913,12731.542202,-75230.577904
26322.834120,12583.501014,13027.624579,-77375.645298
26322.836664,11547.212695,12435.459826,-73851.606007
26322.839209,8142.265362,15692.365970,-72166.195912
26322.841753,2812.782580,12879.583391,-75383.797003
26322.844298,-2812.782580,16136.489536,-75077.358804
26322.846842,4293.194464,18505.148550,-73085.510509
26322.849364,-6217.729913,-1924.535449,-77222.426198
26322.851887,-7550.100608,-10214.842000,-78141.740796
26322.854409,7105.977043,-6957.935855,-76149.892501
26322.856932,888.247130,2220.617826,-75383.797003
26322.859454,-1184.329507,4441.235652,-76915.987999
26322.861977,-9474.636058,5329.482782,-77069.207099
26322.864499,-6217.729913,3997.112087,-73545.167808
26322.867021,-2072.576638,5181.441594,-71553.319513
26322.869544,5477.523971,7105.977043,-74770.920605
26322.872066,2812.782580,6365.771101,-76456.330700
26322.874589,-7698.141797,2960.823768,-76149.892501
26322.877111,296.082377,3701.029710,-75537.016103
26322.879634,-12435.459826,-3997.112087,-78294.959896
26322.882156,-4145.153275,1332.370696,-75383.797003
26322.884679,-10362.883188,-1924.535449,-75383.797003
26322.887201,8438.347739,-1628.453072,-77682.083497
26322.889724,6365.771101,4885.359217,-75690.235202
26322.892246,-1036.288319,2960.823768,-74464.482406
26322.894768,-10214.842000,-6661.853478,-77528.864398
26322.897291,10658.965565,10362.883188,-73085.510509
26322.899813,-3997.112087,13175.665768,-73851.606007
26322.902336,21910.095883,16728.654289,-75230.577904
26322.904858,7550.100608,12879.583391,-75690.235202
26322.907381,10510.924376,15840.407159,-73085.510509
26322.909903,-3108.864956,7105.977043,-72472.634111
26322.912426,5625.565159,6661.853478,-75690.235202
26322.914948,2516.700203,12139.377449,-75843.454302
26322.917471,10807.006753,11843.295072,-75537.016103
26322.919993,2516.700203,7254.018232,-75383.797003
26322.922515,8142.265362,2664.741391,-74924.139704
26322.925038,3256.906145,5625.565159,-74158.044206
26322.927560,-1776.494261,11103.089130,-72932.291410
26322.930083,11251.130318,16284.530724,-74617.701505
26322.932605,9030.512492,12731.542202,-77528.864398
26322.935128,13767.830521,15100.201217,-72472.634111
26322.937650,296.082377,14656.077652,-71859.757712
26322.940173,296.082377,12435.459826,-75690.235202
26322.942695,3404.947333,18505.148550,-74464.482406
26322.945218,-4293.194464,15544.324782,-73238.729609
26322.947740,1332.370696,-2960.823768,-77528.864398
26322.950273,-9770.718434,-9918.759623,-77682.083497
26322.952807,8734.430116,-6513.812290,-75537.016103
26322.955340,-5181.441594,2664.741391,-74770.920605
26322.957873,1332.370696,4885.359217,-77835.302597
26322.960406,-9770.718434,4885.359217,-76915.987999
26322.962940,-4589.276840,5329.482782,-71706.538613
26322.965473,-740.205942,5033.400406,-72932.291410
26322.968006,3552.988522,3108.864956,-76915.987999
26322.970539,2072.576638,2664.741391,-76609.549800
26322.973073,1628.453072,8290.306550,-72319.415011
26322.975606,-6217.729913,1036.288319,-77835.302597
26322.978139,-8882.471304,-740.205942,-77528.864398
26322.980672,-6809.894666,-1480.411884,-74311.263306
26322.983206,-5033.400406,-1480.411884,-75690.235202
26322.985739,14211.954086,2220.617826,-77682.083497
26322.988272,1924.535449,740.205942,-76762.768900
26322.990805,-10658.965565,1924.535449,-75230.577904
26322.993339,-7105.977043,-7254.018232,-76149.892501
26322.995872,4293.194464,13175.665768,-74004.825107
26322.998405,5477.523971,18209.066173,-72319.415011
26323.000939,21762.054695,20133.601622,-74311.263306
26323.003472,8438.347739,13915.871710,-75230.577904
26323.006005,2516.700203,13471.748144,-72625.853210
26323.008538,0.000000,6069.688724,-73085.510509
26323.011072,444.123565,4293.194464,-76456.330700
26323.013605,6661.853478,13323.706956,-76149.892501
26323.016138,11103.089130,10066.800811,-74617.701505
26323.018671,592.164754,4589.276840,-75690.235202
26323.021205,7846.182985,6661.853478,-74158.044206
26323.023738,740.205942,4145.153275,-74311.263306
26323.026271,4145.153275,13915.871710,-73698.386908
26323.028804,9326.594869,16136.489536,-75843.454302
26323.031338,16136.489536,14359.995275,-76609.549800
26323.033871,9622.677246,14656.077652,-72625.853210
26323.036404,2368.659014,12139.377449,-73085.510509
26323.038937,2072.576638,13915.871710,-75383.797003
26323.041471,-1776.494261,19689.478057,-72932.291410
26323.044004,-4737.318029,2960.823768,-75843.454302
26323.046537,-2220.617826,-5773.606348,-76456.330700
26323.049071,-1628.453072,-9030.512492,-76609.549800
26323.051613,10066.800811,-888.247130,-74770.920605
26323.054156,-8438.347739,3552.988522,-75996.673402
26323.056698,-5477.523971,6217.729913,-76762.768900
26323.059240,-7402.059420,4589.276840,-74770.920605
26323.061783,-2812.782580,4589.276840,-73085.510509
26323.064325,4145.153275,7105.977043,-74924.139704
26323.066868,7550.100608,3108.864956,-76456.330700
26323.069410,-5181.441594,4589.276840,-74770.920605
26323.071953,1628.453072,6217.729913,-72472.634111
26323.074495,-14359.995275,-2516.700203,-77069.207099
26323.077038,-4589.276840,-2072.576638,-75690.235202
26323.079580,-7994.224174,-3701.029710,-74617.701505
26323.082123,12435.459826,740.205942,-77835.302597
26323.084665,1924.535449,3552.988522,-77222.426198
26323.087208,-6957.935855,3108.864956,-75383.797003
26323.089750,-7254.018232,-6809.894666,-76149.892501
26323.092293,6661.853478,9474.636058,-74004.825107
26323.094835,-2220.617826,13175.665768,-74924.139704
26323.097378,21910.095883,17764.942608,-73851.606007
26323.099920,9326.594869,13619.789333,-75383.797003
26323.102463,6513.812290,14063.912898,-73391.948708
26323.105005,-2368.659014,6217.729913,-72472.634111
26323.107548,4145.153275,3849.070898,-75383.797003
26323.110090,2960.823768,10807.006753,-75996.673402
26323.112633,12139.377449,13471.748144,-74004.825107
26323.115175,3849.070898,6957.935855,-74004.825107
26323.117718,1776.494261,3404.947333,-74617.701505
26323.120260,3404.947333,7402.059420,-73545.167808
26323.122803,1184.329507,10362.883188,-73545.167808
26323.125345,8586.388927,15988.448347,-75537.016103
26323.127888,15988.448347,14804.118840,-75843.454302
26323.130430,9030.512492,14211.954086,-72319.415011
26323.132973,5477.523971,13323.706956,-72932.291410
26323.135515,-1924.535449,11399.171507,-75537.016103
26323.138058,5033.400406,19097.313304,-74311.263306
26323.140600,-7254.018232,1924.535449,-76609.549800
26323.143143,-2664.741391,-3849.070898,-76762.768900
26323.145685,-1036.288319,-10658.965565,-76149.892501
26323.148228,9474.636058,-148.041188,-75383.797003
26323.150770,-7105.977043,3256.906145,-75537.016103
26323.153321,-2960.823768,5773.606348,-77222.426198
26323.155871,-10214.842000,4885.359217,-75690.235202
26323.158422,-148.041188,4145.153275,-73851.606007
26323.160972,1776.494261,2072.576638,-75843.454302
26323.163523,2220.617826,4293.194464,-77222.426198
26323.166073,1628.453072,8734.430116,-73391.948708
26323.168624,-3849.070898,3849.070898,-74770.920605
26323.171174,-9918.759623,444.123565,-77528.864398
26323.173725,-10658.965565,-3552.988522,-76303.111601
26323.176275,-1776.494261,-3108.864956,-74924.139704
26323.178826,8438.347739,-1036.288319,-76762.768900
26323.181376,444.123565,2516.700203,-77069.207099
26323.183927,-7846.182985,1036.288319,-76456.330700
26323.186477,-6513.812290,-8290.306550,-77375.645298
26323.189028,6217.729913,13619.789333,-73391.948708
26323.191578,-1924.535449,15100.201217,-74158.044206
26323.194129,25759.166782,19837.519246,-74004.825107
26323.196679,7698.141797,13619.789333,-75383.797003
26323.199230,8882.471304,13915.871710,-73391.948708
26323.201780,1332.370696,4737.318029,-73238.729609
26323.204331,1036.288319,3997.112087,-76149.892501
26323.206881,2220.617826,13027.624579,-76149.892501
26323.209432,13767.830521,11695.253884,-74617.701505
26323.211982,2220.617826,3108.864956,-74924.139704
26323.214533,5625.565159,4145.153275,-74617.701505
26323.217083,2368.659014,5773.606348,-73545.167808
26323.219634,4441.235652,14952.160028,-73545.167808
26323.222184,10807.006753,16876.695478,-75996.673402
26323.224735,14359.995275,14508.036463,-75690.235202
26323.227285,6957.935855,13619.789333,-72472.634111
26323.229836,3701.029710,9770.718434,-74311.263306
26323.232386,148.041188,17024.736666,-74924.139704
26323.234937,-7550.100608,16432.571912,-74158.044206
26323.237487,148.041188,1628.453072,-75537.016103
26323.240038,-8882.471304,-7994.224174,-76456.330700
26323.242588,12879.583391,-6809.894666,-75690.235202
26323.245139,-1332.370696,-296.082377,-74464.482406
26323.247689,2960.823768,3997.112087,-75537.016103
26323.250240,-12435.459826,5773.606348,-76915.987999
26323.252790,-5033.400406,6365.771101,-74617.701505
26323.255318,1036.288319,4737.318029,-74464.482406
26323.257847,-148.041188,1628.453072,-79214.274493
26323.260375,7402.059420,8142.265362,-75690.235202
26323.262903,-1184.329507,6661.853478,-73698.386908
26323.265431,-7254.018232,2960.823768,-75690.235202
26323.267959,-11547.212695,-1036.288319,-76915.987999
26323.270488,-7402.059420,-3849.070898,-75230.577904
26323.273016,1332.370696,-1776.494261,-75843.454302
26323.275544,7994.224174,2960.823768,-76915.987999
26323.278072,-3256.906145,1924.535449,-76303.111601
26323.280600,-9326.594869,-4145.153275,-76303.111601
26323.283129,7994.224174,3849.070898,-75230.577904
26323.285657,-6365.771101,10807.006753,-75537.016103
26323.288185,17320.819043,16284.530724,-75230.577904
26323.290713,13027.624579,15692.365970,-74770.920605
26323.293241,10510.924376,14063.912898,-73698.386908
26323.295770,-3108.864956,5181.441594,-74158.044206
26323.298298,3849.070898,3256.906145,-75690.235202
26323.300826,592.164754,8290.306550,-75383.797003
26323.303354,9030.512492,14359.995275,-74770.920605
26323.305882,6661.853478,7994.224174,-73851.606007
26323.308411,3849.070898,3552.988522,-74311.263306
26323.310939,5773.606348,5921.647536,-74770.920605
26323.313467,3256.906145,8290.306550,-74770.920605
26323.315995,6957.935855,15988.448347,-75077.358804
26323.318523,15248.242405,15396.283594,-76456.330700
26323.321052,7105.977043,14656.077652,-73391.948708
26323.323580,7994.224174,13767.830521,-72472.634111
26323.326108,-1036.288319,12139.377449,-74770.920605
26323.328636,1776.494261,19541.436869,-74004.825107
26323.331165,-8882.471304,5329.482782,-75383.797003
26323.333693,-888.247130,-888.247130,-75690.235202
26323.336221,1184.329507,-8734.430116,-76762.768900
26323.338749,8734.430116,0.000000,-75690.235202
26323.341277,-5477.523971,2220.617826,-75537.016103
26323.343806,-3849.070898,6957.935855,-76456.330700
26323.346334,-7846.182985,3552.988522,-75690.235202
26323.348862,-2220.617826,6217.729913,-71859.757712
26323.351390,592.164754,4293.194464,-74464.482406
26323.353918,1924.535449,2664.741391,-77222.426198
26323.356454,2368.659014,8142.265362,-76303.111601
26323.358993,-4737.318029,2368.659014,-75996.673402
26323.361532,-12287.418637,-740.205942,-77835.302597
26323.364071,-7846.182985,-3404.947333,-76609.549800
26323.366610,-2960.823768,-3849.070898,-75230.577904
26323.369149,16284.530724,3997.112087,-75383.797003
26323.371688,-1036.288319,1332.370696,-77222.426198
26323.374227,-10807.006753,-592.164754,-75383.797003
26323.376766,11547.212695,-296.082377,-75996.673402
26323.379305,-5329.482782,11991.336260,-75843.454302
26323.381844,10807.006753,14656.077652,-75996.673402
26323.384383,18061.024985,17764.942608,-74464.482406
26323.386923,10214.842000,13915.871710,-74464.482406
26323.389462,-3849.070898,9178.553681,-72932.291410
26323.392001,3256.906145,4589.276840,-73391.948708
26323.394540,296.082377,4145.153275,-75230.577904
26323.397079,8734.430116,12139.377449,-77528.864398
26323.399618,11991.336260,10362.883188,-75843.454302
26323.402157,4737.318029,3108.864956,-75383.797003
26323.404696,2220.617826,3108.864956,-73391.948708
26323.407235,4885.359217,9918.759623,-73238.729609
26323.409774,3404.947333,13767.830521,-75077.358804
26323.412313,12879.583391,18357.107362,-76149.892501
26323.414852,10510.924376,16728.654289,-73085.510509
26323.417391,5477.523971,12139.377449,-73391.948708
26323.419930,2664.741391,12435.459826,-73851.606007
26323.422469,-1332.370696,18653.189738,-73851.606007
26323.425008,-8586.388927,2072.576638,-76456.330700
26323.427547,-5773.606348,-296.082377,-75077.358804
26323.430086,-1924.535449,-9622.677246,-77222.426198
26323.432625,14359.995275,-592.164754,-75996.673402
26323.435164,-9770.718434,1332.370696,-75077.358804
26323.437703,-5477.523971,5329.482782,-76762.768900
26323.440242,-5625.565159,4589.276840,-75077.358804
26323.442781,-2072.576638,5181.441594,-72625.853210
26323.445320,-2960.823768,3701.029710,-76303.111601
26323.447860,7698.141797,6217.729913,-75996.673402
26323.450399,-3552.988522,6217.729913,-75077.358804
26323.452938,-444.123565,5329.482782,-75383.797003
26323.455477,-15100.201217,-2664.741391,-76762.768900
26323.457996,-7846.182985,-2368.659014,-75537.016103
26323.460515,2220.617826,-2664.741391,-75843.454302
26323.463035,13323.706956,5033.400406,-75996.673402
26323.465554,-740.205942,1184.329507,-75537.016103
26323.468073,-9918.759623,-2812.782580,-75690.235202
26323.470593,7254.018232,-148.041188,-74464.482406
26323.473112,-4737.318029,10510.924376,-75690.235202
26323.475631,11991.336260,15248.242405,-75843.454302
26323.478151,12139.377449,15840.407159,-74311.263306
26323.480670,10807.006753,14656.077652,-74158.044206
26323.483189,-3849.070898,5329.482782,-74924.139704
26323.485709,4145.153275,2960.823768,-75077.358804
26323.488228,-740.205942,5773.606348,-75537.016103
26323.490747,7550.100608,14508.036463,-76456.330700
26323.493267,10510.924376,8586.388927,-75383.797003
26323.495786,3404.947333,3552.988522,-74617.701505
26323.498305,1924.535449,5773.606348,-74004.825107
26323.500825,3701.029710,11547.212695,-73391.948708
26323.503344,11103.089130,15396.283594,-75383.797003
26323.505863,10362.883188,15692.365970,-75843.454302
26323.508383,8438.347739,16136.489536,-73238.729609
26323.510902,6365.771101,10066.800811,-73698.386908
26323.513422,888.247130,14211.954086,-73391.948708
26323.515941,-2368.659014,16284.530724,-74158.044206
26323.518460,-2220.617826,-740.205942,-75537.016103
26323.520980,-7402.059420,-5181.441594,-76915.987999
26323.523499,7698.141797,-6217.729913,-77222.426198
26323.526018,1924.535449,1036.288319,-75843.454302
26323.528538,148.041188,4737.318029,-75077.358804
26323.531057,-7698.141797,6661.853478,-76303.111601
26323.533576,-4589.276840,3552.988522,-74770.920605
26323.536096,-5921.647536,4293.194464,-73238.729609
26323.538615,4737.318029,7254.018232,-77375.645298
26323.541134,7846.182985,6217.729913,-76456.330700
26323.543654,-5181.441594,5773.606348,-74158.044206
26323.546173,-5033.400406,2664.741391,-75690.235202
26323.548692,-17764.942608,-4737.318029,-76609.549800
26323.551212,-3256.906145,-1184.329507,-74924.139704
26323.553731,6957.935855,444.123565,-74924.139704
26323.556250,6217.729913,2220.617826,-77528.864398
26323.558783,-7698.141797,-1332.370696,-76456.330700
26323.561315,592.164754,-6513.812290,-76456.330700
26323.563847,3404.947333,12731.542202,-73545.167808
26323.566379,-5773.606348,14952.160028,-74004.825107
26323.568912,28127.825796,21169.889941,-74617.701505
26323.571444,8882.471304,14359.995275,-73391.948708
26323.573976,5773.606348,14063.912898,-72779.072310
26323.576508,592.164754,3701.029710,-74617.701505
26323.579041,296.082377,1036.288319,-76609.549800
26323.581573,5329.482782,13323.706956,-75230.577904
26323.584105,9326.594869,8734.430116,-75843.454302
26323.586637,5921.647536,5181.441594,-75690.235202
26323.589170,6069.688724,3701.029710,-74158.044206
26323.591702,592.164754,6809.894666,-73851.606007
26323.594234,6809.894666,14063.912898,-73698.386908
26323.596766,11547.212695,16580.613101,-75230.577904
26323.599299,10510.924376,16136.489536,-74617.701505
26323.601831,7698.141797,14508.036463,-73238.729609
26323.604363,592.164754,11695.253884,-74464.482406
26323.606895,3552.988522,17616.901420,-73851.606007
26323.609428,-12879.583391,2072.576638,-77375.645298
26323.611960,888.247130,148.041188,-75230.577904
26323.614492,2220.617826,-7254.018232,-76915.987999
26323.617024,8142.265362,-296.082377,-76303.111601
26323.619557,-2220.617826,2960.823768,-76303.111601
26323.622089,-4145.153275,6661.853478,-75843.454302
26323.624621,-8882.471304,4737.318029,-75996.673402
26323.627153,-1184.329507,7254.018232,-72625.853210
26323.629686,-740.205942,3849.070898,-75383.797003
26323.632218,6069.688724,5921.647536,-76915.987999
26323.634750,444.123565,7994.224174,-74770.920605
26323.637282,-3997.112087,1480.411884,-76149.892501
26323.639815,-13175.665768,-3108.864956,-76456.330700
26323.642347,-7550.100608,-2812.782580,-75077.358804
26323.644879,5773.606348,444.123565,-75077.358804
26323.647412,8142.265362,2812.782580,-76303.111601
26323.649944,-3701.029710,1628.453072,-75843.454302
26323.652476,2516.700203,-5329.482782,-76303.111601
26323.655008,2220.617826,10510.924376,-74158.044206
26323.657541,-6217.729913,15248.242405,-74158.044206
26323.660084,22946.384202,18653.189738,-75230.577904
