#time,accel_x,accel_y,accel_z
20830.002215,2072.576638,6069.688724,-74924.139704
20830.004755,2516.700203,6513.812290,-74924.139704
20830.007295,2072.576638,6365.771101,-75077.358804
20830.009835,1924.535449,6365.771101,-75230.577904
20830.012375,1776.494261,5625.565159,-75383.797003
20830.014915,6513.812290,8290.306550,-74311.263306
20830.017455,2072.576638,5773.606348,-74311.263306
20830.019994,5329.482782,8142.265362,-74770.920605
20830.022534,1480.411884,7698.141797,-75077.358804
20830.025074,-740.205942,7846.182985,-74617.701505
20830.027614,3997.112087,9178.553681,-74924.139704
20830.030154,1628.453072,9770.718434,-74617.701505
20830.032694,11251.130318,9918.759623,-74617.701505
20830.035234,5625.565159,15100.201217,-73238.729609
20830.037773,8586.388927,19393.395680,-73851.606007
20830.040313,-7846.182985,11103.089130,-76915.987999
20830.042853,-1628.453072,4589.276840,-74924.139704
20830.045393,-4737.318029,1184.329507,-74617.701505
20830.047933,3256.906145,-888.247130,-75843.454302
20830.050473,740.205942,-5033.400406,-78141.740796
20830.053012,2812.782580,-2072.576638,-75996.673402
20830.055552,-3849.070898,2072.576638,-74770.920605
20830.058092,-3849.070898,6809.894666,-75230.577904
20830.060632,5181.441594,10807.006753,-75537.016103
20830.063172,1776.494261,10214.842000,-74004.825107
20830.065712,7994.224174,10362.883188,-74617.701505
20830.068252,-4885.359217,3552.988522,-75843.454302
20830.070791,-1480.411884,148.041188,-76456.330700
20830.073331,-8290.306550,740.205942,-75537.016103
20830.075871,1776.494261,4145.153275,-74770.920605
20830.078411,2072.576638,9030.512492,-75996.673402
20830.080951,2960.823768,5181.441594,-76149.892501
20830.083491,2516.700203,3997.112087,-74004.825107
20830.086031,-3997.112087,2960.823768,-74004.825107
20830.088570,-3849.070898,4589.276840,-75230.577904
20830.091110,1184.329507,7105.977043,-75383.797003
20830.093650,-740.205942,5181.441594,-75077.358804
20830.096190,10510.924376,6661.853478,-74158.044206
20830.098730,-3108.864956,2220.617826,-76303.111601
20830.101277,-2812.782580,2812.782580,-75690.235202
20830.103825,-1332.370696,3701.029710,-75690.235202
20830.106372,-7402.059420,-148.041188,-76456.330700
20830.108920,-444.123565,-296.082377,-77069.207099
20830.111468,6217.729913,1776.494261,-76762.768900
20830.114015,2072.576638,6365.771101,-75230.577904
20830.116563,-8586.388927,4589.276840,-74924.139704
20830.119110,13027.624579,148.041188,-75537.016103
20830.121658,7105.977043,9030.512492,-74770.920605
20830.124205,-17912.983796,15396.283594,-74004.825107
20830.126753,9622.677246,13175.665768,-75690.235202
20830.129300,18801.230927,9474.636058,-74924.139704
20830.131848,-20577.725188,-2368.659014,-74311.263306
20830.134396,4737.318029,-7105.977043,-75383.797003
20830.136943,15988.448347,2664.741391,-75537.016103
20830.139491,3256.906145,15544.324782,-76149.892501
20830.142038,2072.576638,15840.407159,-75230.577904
20830.144586,1628.453072,9474.636058,-74924.139704
20830.147133,-2960.823768,7254.018232,-73545.167808
20830.149681,3404.947333,9918.759623,-73391.948708
20830.152228,9918.759623,10658.965565,-74924.139704
20830.154776,8882.471304,10510.924376,-76456.330700
20830.157324,-1628.453072,3701.029710,-75843.454302
20830.159871,1036.288319,1480.411884,-74004.825107
20830.162419,-2516.700203,5773.606348,-75690.235202
20830.164966,10955.047942,13175.665768,-75843.454302
20830.167514,12879.583391,16284.530724,-73545.167808
20830.170061,3552.988522,13767.830521,-73698.386908
20830.172609,8290.306550,1480.411884,-75537.016103
20830.175156,-6069.688724,1628.453072,-74311.263306
20830.177704,1184.329507,9178.553681,-73238.729609
20830.180252,1628.453072,11843.295072,-78601.398095
20830.182799,9918.759623,8586.388927,-77222.426198
20830.185347,5625.565159,6957.935855,-73545.167808
20830.187894,5921.647536,8290.306550,-74924.139704
20830.190442,1036.288319,10066.800811,-76915.987999
20830.192989,4589.276840,15100.201217,-75690.235202
20830.195537,1480.411884,13619.789333,-74311.263306
20830.198084,5329.482782,6365.771101,-75690.235202
20830.200632,-1036.288319,444.123565,-75996.673402
20830.203157,9326.594869,4293.194464,-73545.167808
20830.205682,3256.906145,11103.089130,-74464.482406
20830.208206,6957.935855,13471.748144,-76303.111601
20830.210731,-3701.029710,6365.771101,-75690.235202
20830.213256,-148.041188,4293.194464,-73851.606007
20830.215781,9178.553681,6365.771101,-74770.920605
20830.218306,13323.706956,15544.324782,-75690.235202
20830.220830,-2368.659014,12287.418637,-76303.111601
20830.223355,10955.047942,8142.265362,-74311.263306
20830.225880,-13471.748144,-1332.370696,-74924.139704
20830.228405,-12287.418637,-5921.647536,-75690.235202
20830.230930,7254.018232,4589.276840,-75843.454302
20830.233454,10214.842000,13175.665768,-77222.426198
20830.235979,5329.482782,10658.965565,-75843.454302
20830.238504,-3552.988522,740.205942,-74924.139704
20830.241029,-148.041188,-2664.741391,-73698.386908
20830.243554,-9474.636058,5921.647536,-75230.577904
20830.246078,444.123565,8290.306550,-77682.083497
20830.248603,6069.688724,6069.688724,-77069.207099
20830.251128,-296.082377,592.164754,-74770.920605
20830.253653,-592.164754,-1628.453072,-73545.167808
20830.256178,-4441.235652,0.000000,-75996.673402
20830.258702,2516.700203,10066.800811,-76303.111601
20830.261227,-2516.700203,11695.253884,-75230.577904
20830.263752,4589.276840,9326.594869,-74158.044206
20830.266277,-1332.370696,-1036.288319,-75996.673402
20830.268802,-1776.494261,740.205942,-74924.139704
20830.271326,-1776.494261,3256.906145,-74004.825107
20830.273851,-1036.288319,10066.800811,-75690.235202
20830.276376,2960.823768,5773.606348,-78294.959896
20830.278901,1480.411884,6365.771101,-74924.139704
20830.281426,-1776.494261,3404.947333,-73545.167808
20830.283950,-5181.441594,2072.576638,-75230.577904
20830.286475,2960.823768,7994.224174,-75077.358804
20830.289000,-2516.700203,8734.430116,-74158.044206
20830.291525,8290.306550,6809.894666,-76303.111601
20830.294050,-2368.659014,888.247130,-75690.235202
20830.296575,-740.205942,592.164754,-74158.044206
20830.299099,-10807.006753,-2368.659014,-74617.701505
20830.301624,592.164754,148.041188,-76609.549800
20830.304160,6957.935855,6809.894666,-76609.549800
20830.306695,1628.453072,8142.265362,-75690.235202
20830.309230,-8142.265362,1480.411884,-75690.235202
20830.311766,1332.370696,-4589.276840,-75383.797003
20830.314301,14063.912898,7550.100608,-73391.948708
20830.316837,-13915.871710,11399.171507,-74464.482406
20830.319372,2072.576638,12583.501014,-75996.673402
20830.321908,16284.530724,6809.894666,-76149.892501
20830.324443,-13767.830521,2960.823768,-73851.606007
20830.326979,5773.606348,1924.535449,-74770.920605
20830.329514,19985.560434,8734.430116,-75230.577904
20830.332049,1924.535449,16580.613101,-75383.797003
20830.334585,1924.535449,14211.954086,-75383.797003
20830.337120,1924.535449,6957.935855,-75077.358804
20830.339656,-5921.647536,1628.453072,-75383.797003
20830.342191,9178.553681,6957.935855,-74158.044206
20830.344727,5773.606348,10362.883188,-75690.235202
20830.347262,10066.800811,11991.336260,-75996.673402
20830.349798,-1184.329507,6217.729913,-74770.920605
20830.352333,1776.494261,7254.018232,-73851.606007
20830.354868,-7254.018232,7105.977043,-75230.577904
20830.357404,8438.347739,13027.624579,-76915.987999
20830.359939,12287.418637,12879.583391,-75383.797003
20830.362475,1332.370696,8882.471304,-74770.920605
20830.365010,2368.659014,2516.700203,-76149.892501
20830.367546,2220.617826,4293.194464,-74311.263306
20830.370081,-592.164754,9178.553681,-74004.825107
20830.372617,2220.617826,9474.636058,-76456.330700
20830.375152,7698.141797,9918.759623,-77528.864398
20830.377687,9622.677246,9178.553681,-74924.139704
20830.380223,5477.523971,8586.388927,-74311.263306
20830.382758,1628.453072,11103.089130,-75537.016103
20830.385294,-2812.782580,10214.842000,-75843.454302
20830.387829,5181.441594,11251.130318,-74004.825107
20830.390365,6069.688724,3849.070898,-75690.235202
20830.392900,13027.624579,6365.771101,-75537.016103
20830.395436,3256.906145,9474.636058,-74311.263306
20830.397971,-2960.823768,7402.059420,-75996.673402
20830.400506,-3701.029710,6661.853478,-74770.920605
20830.403042,-592.164754,6957.935855,-74311.263306
20830.405587,23390.507767,14952.160028,-74770.920605
20830.408131,-740.205942,12435.459826,-75230.577904
20830.410676,8734.430116,8882.471304,-74770.920605
20830.413221,11103.089130,6661.853478,-72779.072310
20830.415765,-26351.331535,-1776.494261,-77528.864398
20830.418310,8586.388927,-296.082377,-77375.645298
20830.420854,1776.494261,8438.347739,-76303.111601
20830.423399,12435.459826,12287.418637,-74770.920605
20830.425944,-7846.182985,1332.370696,-74924.139704
20830.428488,2960.823768,-592.164754,-74158.044206
20830.431033,-8586.388927,2368.659014,-75077.358804
20830.433578,-6513.812290,10807.006753,-75996.673402
20830.436122,0.000000,7698.141797,-78907.836294
20830.438667,11547.212695,2960.823768,-75843.454302
20830.441212,-5625.565159,-5181.441594,-74158.044206
20830.443756,-2960.823768,-1480.411884,-74770.920605
20830.446301,444.123565,3108.864956,-77528.864398
20830.448846,-1480.411884,12731.542202,-75383.797003
20830.451390,3552.988522,11399.171507,-75077.358804
20830.453935,3108.864956,5773.606348,-74158.044206
20830.456479,4737.318029,-1184.329507,-75690.235202
20830.459024,-9326.594869,1480.411884,-74311.263306
20830.461569,3404.947333,6069.688724,-75996.673402
20830.464113,-3849.070898,5773.606348,-79061.055394
20830.466658,4145.153275,8586.388927,-75996.673402
20830.469203,-148.041188,3701.029710,-73698.386908
20830.471747,0.000000,3997.112087,-73698.386908
20830.474292,-1480.411884,3108.864956,-76456.330700
20830.476837,1924.535449,8290.306550,-75996.673402
20830.479381,-1184.329507,6365.771101,-74617.701505
20830.481926,148.041188,1184.329507,-76303.111601
20830.484470,-7402.059420,-3552.988522,-76149.892501
20830.487015,-1480.411884,-2812.782580,-74924.139704
20830.489560,5181.441594,1924.535449,-75230.577904
20830.492104,888.247130,9326.594869,-76456.330700
20830.494649,-4885.359217,7994.224174,-76456.330700
20830.497194,-3552.988522,-1480.411884,-76149.892501
20830.499738,9474.636058,7698.141797,-73851.606007
20830.502283,-11103.089130,8586.388927,-75230.577904
20830.504828,0.000000,11251.130318,-76303.111601
20830.507351,20725.766376,5477.523971,-75077.358804
20830.509874,-4885.359217,5329.482782,-74464.482406
20830.512398,-11251.130318,-592.164754,-75690.235202
20830.514921,20873.807564,6957.935855,-74924.139704
20830.517444,4293.194464,18357.107362,-74004.825107
20830.519968,-296.082377,15544.324782,-75230.577904
20830.522491,7698.141797,6217.729913,-75690.235202
20830.525015,-7254.018232,740.205942,-74617.701505
20830.527538,8142.265362,3552.988522,-74158.044206
20830.530061,9030.512492,10066.800811,-75230.577904
20830.532585,8438.347739,11991.336260,-76915.987999
20830.535108,5181.441594,11103.089130,-74617.701505
20830.537631,444.123565,6365.771101,-73698.386908
20830.540155,-2516.700203,6513.812290,-74004.825107
20830.542678,4885.359217,10214.842000,-75230.577904
20830.545201,12435.459826,12435.459826,-74617.701505
20830.547725,1184.329507,7698.141797,-75077.358804
20830.550248,3997.112087,4737.318029,-77222.426198
20830.552771,9030.512492,3404.947333,-75843.454302
20830.555295,-3701.029710,6957.935855,-74464.482406
20830.557818,5033.400406,8882.471304,-75843.454302
20830.560342,5181.441594,9770.718434,-77528.864398
20830.562865,11251.130318,12139.377449,-74617.701505
20830.565388,3849.070898,10214.842000,-74617.701505
20830.567912,-296.082377,7550.100608,-75537.016103
20830.570435,-1332.370696,8882.471304,-74617.701505
20830.572958,4885.359217,9474.636058,-74158.044206
20830.575482,11399.171507,10955.047942,-75230.577904
20830.578005,7994.224174,9918.759623,-75690.235202
20830.580528,-592.164754,5921.647536,-75077.358804
20830.583052,148.041188,2516.700203,-74158.044206
20830.585575,-3701.029710,5773.606348,-74770.920605
20830.588099,18209.066173,15988.448347,-75230.577904
20830.590622,3108.864956,15248.242405,-75383.797003
20830.593145,8290.306550,10066.800811,-74617.701505
20830.595669,7550.100608,6365.771101,-73698.386908
20830.598192,-22650.301825,0.000000,-75383.797003
20830.600715,-1628.453072,-1924.535449,-75996.673402
20830.603239,5181.441594,9622.677246,-76456.330700
20830.605762,10807.006753,11399.171507,-76149.892501
20830.608298,-5921.647536,148.041188,-75843.454302
20830.610833,3701.029710,-2516.700203,-74158.044206
20830.613369,-7698.141797,2812.782580,-73851.606007
20830.615904,-8882.471304,9622.677246,-76303.111601
20830.618440,5033.400406,10214.842000,-77835.302597
20830.620976,4885.359217,4293.194464,-76915.987999
20830.623511,-2516.700203,-4293.194464,-74464.482406
20830.626047,-3256.906145,-3256.906145,-74770.920605
20830.628582,-1776.494261,3701.029710,-76149.892501
20830.631118,592.164754,11991.336260,-75537.016103
20830.633653,-592.164754,10362.883188,-73851.606007
20830.636189,4441.235652,6365.771101,-73851.606007
20830.638725,296.082377,296.082377,-75383.797003
20830.641260,-888.247130,3404.947333,-73698.386908
20830.643796,-3552.988522,7105.977043,-75690.235202
20830.646331,2220.617826,7402.059420,-77835.302597
20830.648867,1036.288319,5033.400406,-77069.207099
20830.651402,1776.494261,5033.400406,-74770.920605
20830.653938,-2072.576638,2516.700203,-76149.892501
20830.656474,-740.205942,4441.235652,-76915.987999
20830.659009,740.205942,7994.224174,-75690.235202
20830.661545,-6069.688724,4885.359217,-74924.139704
20830.664080,2072.576638,-1184.329507,-76915.987999
20830.666616,-7402.059420,-6365.771101,-76456.330700
20830.669151,12139.377449,3701.029710,-74158.044206
20830.671687,-3997.112087,7846.182985,-74617.701505
20830.674223,-8290.306550,5773.606348,-76762.768900
20830.676758,6069.688724,-3108.864956,-76456.330700
20830.679294,11399.171507,9770.718434,-72932.291410
20830.681829,-13471.748144,8586.388927,-75383.797003
20830.684365,2220.617826,5625.565159,-76149.892501
20830.686901,23242.466579,12583.501014,-73391.948708
20830.689442,-21021.848753,4737.318029,-74004.825107
20830.691987,5477.523971,3552.988522,-76303.111601
20830.694532,19837.519246,6365.771101,-75383.797003
20830.697077,4441.235652,17764.942608,-74004.825107
20830.699622,-1480.411884,14804.118840,-74924.139704
20830.702166,8882.471304,8586.388927,-75383.797003
20830.704711,-5329.482782,888.247130,-75843.454302
20830.707256,9326.594869,4145.153275,-74464.482406
20830.709801,7846.182985,9770.718434,-74924.139704
20830.712346,6513.812290,10807.006753,-76915.987999
20830.714890,7105.977043,12139.377449,-74464.482406
20830.717435,-1036.288319,8142.265362,-72472.634111
20830.719980,-740.205942,7105.977043,-74311.263306
20830.722525,-2072.576638,10807.006753,-75077.358804
20830.725069,14063.912898,13323.706956,-74464.482406
20830.727614,1924.535449,8438.347739,-74158.044206
20830.730159,6217.729913,4145.153275,-75537.016103
20830.732704,6661.853478,4589.276840,-74617.701505
20830.735249,-2960.823768,5773.606348,-74464.482406
20830.737793,7402.059420,9918.759623,-74770.920605
20830.740338,4145.153275,11103.089130,-76303.111601
20830.742883,7846.182985,11547.212695,-75230.577904
20830.745428,1924.535449,10658.965565,-73545.167808
20830.747973,1184.329507,6957.935855,-75537.016103
20830.750517,2516.700203,10066.800811,-74617.701505
20830.753062,9326.594869,13175.665768,-73698.386908
20830.755607,8290.306550,11843.295072,-75230.577904
20830.758152,-3552.988522,2812.782580,-77528.864398
20830.760697,-1036.288319,1332.370696,-74617.701505
20830.763241,4293.194464,4441.235652,-74924.139704
20830.765786,16432.571912,14952.160028,-75537.016103
20830.768331,-1036.288319,13619.789333,-75690.235202
20830.770876,13027.624579,10066.800811,-74770.920605
20830.773420,-2812.782580,6069.688724,-74311.263306
20830.775965,-15544.324782,-3701.029710,-76915.987999
20830.778510,2220.617826,-888.247130,-76915.987999
20830.781055,4441.235652,6217.729913,-75996.673402
20830.783600,12139.377449,10362.883188,-75690.235202
20830.786144,-14211.954086,-592.164754,-75690.235202
20830.788689,4885.359217,-1036.288319,-74004.825107
20830.791242,-11843.295072,7846.182985,-73391.948708
20830.793795,3552.988522,11251.130318,-76303.111601
20830.796348,3997.112087,9918.759623,-77375.645298
20830.798901,3997.112087,1480.411884,-75690.235202
20830.801454,-1332.370696,-2220.617826,-74004.825107
20830.804007,-4145.153275,-2812.782580,-75383.797003
20830.806559,-3108.864956,7254.018232,-75843.454302
20830.809112,2368.659014,12731.542202,-74158.044206
20830.811665,2812.782580,6661.853478,-73851.606007
20830.814218,2368.659014,1480.411884,-74464.482406
20830.816771,-148.041188,3701.029710,-75230.577904
20830.819324,-3108.864956,7254.018232,-74464.482406
20830.821877,-444.123565,8290.306550,-76303.111601
20830.824430,-444.123565,6661.853478,-76149.892501
20830.826983,2812.782580,4737.318029,-75690.235202
20830.829536,-2220.617826,3256.906145,-75077.358804
20830.832088,-444.123565,2516.700203,-76915.987999
20830.834641,-1776.494261,5329.482782,-76149.892501
20830.837194,-5477.523971,4293.194464,-75537.016103
20830.839747,-3108.864956,-2664.741391,-77222.426198
20830.842300,6365.771101,-1036.288319,-75383.797003
20830.844853,2812.782580,3552.988522,-74770.920605
20830.847406,-5033.400406,6661.853478,-75077.358804
20830.849959,-10362.883188,148.041188,-75843.454302
20830.852512,18653.189738,3997.112087,-74004.825107
20830.855064,-9326.594869,5477.523971,-75230.577904
20830.857617,-5181.441594,8882.471304,-75537.016103
20830.860170,14804.118840,3256.906145,-76762.768900
20830.862723,6809.894666,9326.594869,-74158.044206
20830.865276,-11843.295072,3849.070898,-74770.920605
20830.867829,14656.077652,8142.265362,-74770.920605
20830.870382,12287.418637,14952.160028,-74924.139704
20830.872935,-2368.659014,16876.695478,-73545.167808
20830.875488,6069.688724,11547.212695,-75383.797003
20830.878041,-2960.823768,2664.741391,-75537.016103
20830.880593,3701.029710,3552.988522,-74158.044206
20830.883146,10658.965565,6513.812290,-75230.577904
20830.885699,8734.430116,10510.924376,-77222.426198
20830.888252,7698.141797,11695.253884,-75690.235202
20830.890805,592.164754,9474.636058,-73851.606007
20830.893365,3849.070898,8290.306550,-74158.044206
20830.895925,-7254.018232,7254.018232,-75843.454302
20830.898484,8142.265362,9918.759623,-74770.920605
20830.901044,5033.400406,10807.006753,-74158.044206
20830.903604,4737.318029,5921.647536,-75690.235202
20830.906163,8586.388927,4145.153275,-76762.768900
20830.908723,-592.164754,7994.224174,-73851.606007
20830.911283,-1184.329507,8142.265362,-72779.072310
20830.913843,5921.647536,11547.212695,-75690.235202
20830.916402,5181.441594,10955.047942,-75996.673402
20830.918962,6513.812290,11547.212695,-73238.729609
20830.921522,6957.935855,9918.759623,-74617.701505
20830.924082,-444.123565,10214.842000,-74924.139704
20830.926641,9622.677246,12731.542202,-73391.948708
20830.929201,-5625.565159,7994.224174,-74924.139704
20830.931761,5329.482782,3552.988522,-76609.549800
20830.934321,-888.247130,888.247130,-75537.016103
20830.936880,19985.560434,12879.583391,-74004.825107
20830.939440,-2812.782580,13175.665768,-75230.577904
20830.942000,7550.100608,11991.336260,-75383.797003
20830.944559,1332.370696,11399.171507,-73085.510509
20830.947119,-17616.901420,2072.576638,-75077.358804
20830.949679,5181.441594,-1332.370696,-75690.235202
20830.952239,444.123565,1480.411884,-76609.549800
20830.954798,19837.519246,10066.800811,-75537.016103
20830.957358,-13323.706956,148.041188,-75996.673402
20830.959918,5033.400406,-592.164754,-75077.358804
20830.962478,-11251.130318,1184.329507,-75383.797003
20830.965037,-2960.823768,10658.965565,-74617.701505
20830.967597,8882.471304,10807.006753,-77222.426198
20830.970157,2220.617826,3849.070898,-76762.768900
20830.972716,3256.906145,-296.082377,-73545.167808
20830.975276,-13175.665768,-5329.482782,-74770.920605
20830.977836,1036.288319,2516.700203,-76456.330700
20830.980396,-3849.070898,11103.089130,-75230.577904
20830.982955,4737.318029,9030.512492,-75996.673402
20830.985515,1036.288319,4145.153275,-75230.577904
20830.988075,-444.123565,2812.782580,-73851.606007
20830.990635,-444.123565,7994.224174,-73698.386908
20830.993194,-4589.276840,9030.512492,-75383.797003
20830.995759,1480.411884,6957.935855,-76303.111601
20830.998324,4441.235652,4441.235652,-75537.016103
20831.000889,-888.247130,1480.411884,-73085.510509
20831.003453,-296.082377,2664.741391,-74464.482406
20831.006018,-6217.729913,1480.411884,-77375.645298
20831.008583,-1776.494261,2812.782580,-75843.454302
20831.011148,-3108.864956,-148.041188,-76149.892501
20831.013712,13323.706956,3108.864956,-76456.330700
20831.016277,-2960.823768,3701.029710,-76149.892501
20831.018842,-9770.718434,2960.823768,-74464.482406
20831.021407,1480.411884,-2960.823768,-76303.111601
20831.023972,12435.459826,10658.965565,-73698.386908
20831.026536,-12435.459826,9918.759623,-75077.358804
20831.029101,5033.400406,6365.771101,-75843.454302
20831.031666,18801.230927,10362.883188,-73545.167808
20831.034231,-14952.160028,5625.565159,-73698.386908
20831.036795,3404.947333,3997.112087,-76915.987999
20831.039360,19541.436869,7402.059420,-75690.235202
20831.041925,6661.853478,16580.613101,-75077.358804
20831.044490,-2960.823768,13619.789333,-75077.358804
20831.047054,9326.594869,8142.265362,-75690.235202
20831.049619,-9178.553681,1924.535449,-75690.235202
20831.052184,8438.347739,4885.359217,-74617.701505
20831.054749,9622.677246,10214.842000,-75690.235202
20831.057313,7105.977043,9770.718434,-76609.549800
20831.059878,8586.388927,11547.212695,-74464.482406
20831.062443,-1036.288319,8734.430116,-72779.072310
20831.065008,3849.070898,7846.182985,-75383.797003
20831.067573,-3108.864956,7846.182985,-76609.549800
20831.070137,7846.182985,8142.265362,-75383.797003
20831.072702,-296.082377,7402.059420,-74770.920605
20831.075267,7698.141797,8438.347739,-75996.673402
20831.077832,2368.659014,5773.606348,-75230.577904
20831.080396,592.164754,7105.977043,-73391.948708
20831.082961,6809.894666,10807.006753,-74464.482406
20831.085526,5477.523971,11547.212695,-76456.330700
20831.088091,7698.141797,12583.501014,-75230.577904
20831.090655,3108.864956,9770.718434,-73698.386908
20831.093220,5477.523971,9474.636058,-74770.920605
20831.095785,2368.659014,9178.553681,-74770.920605
20831.098354,-2072.576638,5625.565159,-74924.139704
20831.100923,592.164754,3997.112087,-75690.235202
20831.103492,10807.006753,4885.359217,-76456.330700
20831.106061,16136.489536,13027.624579,-74617.701505
20831.108630,-7698.141797,10807.006753,-74617.701505
20831.111199,11991.336260,8586.388927,-75077.358804
20831.113768,-7994.224174,9622.677246,-74617.701505
20831.116337,-10807.006753,-1480.411884,-76915.987999
20831.118906,2072.576638,888.247130,-75843.454302
20831.121475,6661.853478,2812.782580,-77222.426198
20831.124044,9474.636058,7994.224174,-74158.044206
20831.126613,-18357.107362,-1480.411884,-75230.577904
20831.129182,5329.482782,-1480.411884,-75230.577904
20831.131751,-12139.377449,5033.400406,-74924.139704
20831.134320,6069.688724,10066.800811,-76456.330700
20831.136889,7254.018232,8882.471304,-77988.521696
20831.139458,592.164754,1924.535449,-75383.797003
20831.142027,-1924.535449,-1776.494261,-73851.606007
20831.144596,-10955.047942,-3256.906145,-74770.920605
20831.147165,-740.205942,4145.153275,-75996.673402
20831.149734,2072.576638,10807.006753,-75230.577904
20831.152303,3849.070898,6513.812290,-75843.454302
20831.154872,2072.576638,2960.823768,-75077.358804
20831.157441,-2220.617826,2220.617826,-75537.016103
20831.160010,-1036.288319,7254.018232,-74924.139704
20831.162579,-2960.823768,9178.553681,-74464.482406
20831.165148,-148.041188,5181.441594,-76762.768900
20831.167717,5773.606348,4737.318029,-76609.549800
20831.170286,-2516.700203,1332.370696,-74311.263306
20831.172855,-6217.729913,1184.329507,-75843.454302
20831.175424,-592.164754,1036.288319,-77222.426198
20831.177993,-1776.494261,1184.329507,-75843.454302
20831.180562,6513.812290,5329.482782,-75230.577904
20831.183131,-2220.617826,5033.400406,-75996.673402
20831.185700,-12139.377449,296.082377,-75537.016103
20831.188269,11399.171507,-2072.576638,-74617.701505
20831.190838,3404.947333,8882.471304,-74464.482406
20831.193407,-9474.636058,11843.295072,-75843.454302
20831.195976,7402.059420,1184.329507,-76456.330700
20831.198545,19985.560434,15100.201217,-72472.634111
20831.201118,-20725.766376,6513.812290,-73851.606007
20831.203690,20281.642811,9770.718434,-75383.797003
20831.206263,16432.571912,12139.377449,-74617.701505
20831.208836,-1332.370696,16728.654289,-73545.167808
20831.211408,2664.741391,11251.130318,-76609.549800
20831.213981,1924.535449,3108.864956,-75690.235202
20831.216554,-444.123565,2960.823768,-75077.358804
20831.219126,5921.647536,5181.441594,-74770.920605
20831.221699,12287.418637,10955.047942,-75537.016103
20831.224272,5921.647536,10362.883188,-75230.577904
20831.226844,4885.359217,10362.883188,-73085.510509
20831.229417,-444.123565,9326.594869,-73391.948708
20831.231990,-4737.318029,8438.347739,-75230.577904
20831.234562,9178.553681,10214.842000,-75077.358804
20831.237135,3849.070898,7550.100608,-75537.016103
20831.239707,2516.700203,8290.306550,-75230.577904
20831.242280,10510.924376,5181.441594,-76915.987999
20831.244853,-1036.288319,6217.729913,-74770.920605
20831.247425,7994.224174,10807.006753,-73698.386908
20831.249998,0.000000,10362.883188,-76609.549800
20831.252571,10658.965565,14952.160028,-75537.016103
20831.255143,5329.482782,11991.336260,-73391.948708
20831.257716,7254.018232,11251.130318,-74617.701505
20831.260289,-1628.453072,5033.400406,-76915.987999
20831.262861,-148.041188,4441.235652,-74004.825107
20831.265434,-592.164754,2664.741391,-74770.920605
20831.268007,16580.613101,8142.265362,-75690.235202
20831.270579,5625.565159,16136.489536,-74464.482406
20831.273152,-3404.947333,9030.512492,-75230.577904
20831.275725,16432.571912,8438.347739,-74158.044206
20831.278297,-19097.313304,7698.141797,-74924.139704
20831.280870,-3256.906145,-1480.411884,-77222.426198
20831.283443,2516.700203,1332.370696,-76149.892501
20831.286015,9030.512492,3849.070898,-75537.016103
20831.288588,592.164754,4145.153275,-75230.577904
20831.291161,2960.823768,1184.329507,-74617.701505
20831.293733,-2812.782580,1924.535449,-74311.263306
20831.296306,-10214.842000,10510.924376,-74617.701505
20831.298879,6069.688724,10066.800811,-77222.426198
20831.301451,7254.018232,6809.894666,-77528.864398
20831.304026,-1332.370696,-148.041188,-75383.797003
20831.306601,-3552.988522,-3108.864956,-73851.606007
20831.309176,-7550.100608,-1776.494261,-75230.577904
20831.311751,-5921.647536,10066.800811,-75843.454302
20831.314326,6809.894666,12879.583391,-75230.577904
20831.316901,4589.276840,5033.400406,-75383.797003
20831.319476,-4145.153275,-444.123565,-75077.358804
20831.322051,3849.070898,6809.894666,-74311.263306
20831.324625,-5033.400406,5477.523971,-74004.825107
20831.327200,-4293.194464,8438.347739,-74770.920605
20831.329775,1184.329507,5477.523971,-75843.454302
20831.332350,-2664.741391,148.041188,-75230.577904
20831.334925,1628.453072,1036.288319,-75230.577904
20831.337500,-13471.748144,-2812.782580,-76456.330700
20831.340075,10807.006753,2516.700203,-76303.111601
20831.342650,-3108.864956,6069.688724,-74617.701505
20831.345225,-2368.659014,7846.182985,-75230.577904
20831.347800,-12139.377449,-2664.741391,-77069.207099
20831.350375,15840.407159,740.205942,-74617.701505
20831.352950,-888.247130,6809.894666,-75383.797003
20831.355524,-8734.430116,8882.471304,-76303.111601
20831.358099,10658.965565,148.041188,-77682.083497
20831.360674,15692.365970,15692.365970,-72625.853210
20831.363249,-18505.148550,7846.182985,-74617.701505
20831.365824,21614.013506,10807.006753,-74770.920605
20831.368399,17616.901420,13027.624579,-74617.701505
20831.370974,-5329.482782,15544.324782,-73238.729609
20831.373549,3108.864956,11843.295072,-75383.797003
20831.376124,740.205942,1924.535449,-75230.577904
20831.378699,-3108.864956,3701.029710,-74311.263306
20831.381274,9622.677246,7550.100608,-74770.920605
20831.383849,11547.212695,10362.883188,-76762.768900
20831.386423,6513.812290,10955.047942,-74924.139704
20831.388998,3256.906145,10510.924376,-72932.291410
20831.391573,1924.535449,8586.388927,-72932.291410
20831.394148,-2812.782580,8290.306550,-74617.701505
20831.396723,8586.388927,11547.212695,-74617.701505
20831.399298,1480.411884,10955.047942,-73851.606007
20831.401873,5921.647536,8586.388927,-74924.139704
20831.404448,4737.318029,4293.194464,-77069.207099
20831.407025,3997.112087,6809.894666,-74770.920605
20831.409602,3849.070898,9918.759623,-74464.482406
20831.412178,7994.224174,15692.365970,-76456.330700
20831.414755,5773.606348,13175.665768,-77222.426198
20831.417332,6513.812290,12435.459826,-72779.072310
20831.419909,444.123565,6957.935855,-74311.263306
20831.422486,-2960.823768,-148.041188,-76149.892501
20831.425063,-148.041188,2812.782580,-74770.920605
20831.427640,13767.830521,10955.047942,-74464.482406
20831.430216,18209.066173,17024.736666,-75996.673402
20831.432793,-10658.965565,9918.759623,-76303.111601
20831.435370,15840.407159,6069.688724,-73698.386908
20831.437947,-15544.324782,7402.059420,-73545.167808
20831.440524,-10214.842000,0.000000,-77835.302597
20831.443101,7846.182985,1776.494261,-76303.111601
20831.445678,7994.224174,4589.276840,-75383.797003
20831.448254,4589.276840,3997.112087,-75077.358804
20831.450831,-14508.036463,-2664.741391,-75383.797003
20831.453408,2072.576638,-1036.288319,-75077.358804
20831.455985,-7402.059420,8586.388927,-74770.920605
20831.458562,-4737.318029,12435.459826,-77222.426198
20831.461139,12731.542202,8586.388927,-76915.987999
20831.463716,-1332.370696,0.000000,-75077.358804
20831.466293,-3552.988522,-3256.906145,-73851.606007
20831.468869,-4737.318029,-3552.988522,-75230.577904
20831.471446,-6069.688724,8586.388927,-75537.016103
20831.474023,4737.318029,13619.789333,-74158.044206
20831.476600,2516.700203,4589.276840,-74158.044206
20831.479177,740.205942,-1776.494261,-75230.577904
20831.481754,-2812.782580,3256.906145,-75843.454302
20831.484331,-2960.823768,5477.523971,-75996.673402
20831.486907,-3701.029710,8438.347739,-75537.016103
20831.489484,-1776.494261,5033.400406,-76762.768900
20831.492061,296.082377,888.247130,-76456.330700
20831.494638,1776.494261,1480.411884,-73851.606007
20831.497215,-7550.100608,-2368.659014,-75537.016103
20831.499792,7254.018232,3701.029710,-75690.235202
20831.502369,-2368.659014,6809.894666,-74924.139704
20831.504945,-9030.512492,1924.535449,-77222.426198
20831.507522,5181.441594,-3108.864956,-76762.768900
20831.510100,7402.059420,6661.853478,-74158.044206
20831.512678,-3849.070898,11251.130318,-74004.825107
20831.515255,-11103.089130,4885.359217,-75690.235202
20831.517833,28423.908173,6217.729913,-75230.577904
20831.520411,-11399.171507,8290.306550,-74311.263306
20831.522988,7105.977043,10066.800811,-75690.235202
20831.525566,22058.137072,8882.471304,-76609.549800
20831.528144,6365.771101,15692.365970,-74311.263306
20831.530721,296.082377,11251.130318,-74924.139704
20831.533299,6069.688724,4589.276840,-75996.673402
20831.535877,-5033.400406,2516.700203,-76762.768900
20831.538454,-296.082377,5181.441594,-74924.139704
20831.541032,12583.501014,9918.759623,-75996.673402
20831.543610,9474.636058,12435.459826,-75537.016103
20831.546187,5921.647536,11251.130318,-73391.948708
20831.548765,148.041188,10066.800811,-72319.415011
20831.551343,2812.782580,6809.894666,-73391.948708
20831.553921,296.082377,7846.182985,-75230.577904
20831.556498,8438.347739,12287.418637,-74617.701505
20831.559076,5477.523971,9178.553681,-75230.577904
20831.561654,6217.729913,3552.988522,-76762.768900
20831.564231,2960.823768,5625.565159,-73545.167808
20831.566809,4885.359217,9474.636058,-73238.729609
20831.569387,5921.647536,14656.077652,-74770.920605
20831.571964,9770.718434,16728.654289,-76915.987999
20831.574542,4737.318029,13767.830521,-74464.482406
20831.577120,444.123565,6809.894666,-73391.948708
20831.579697,-2072.576638,-1480.411884,-75537.016103
20831.582275,-296.082377,148.041188,-75383.797003
20831.584853,16284.530724,11991.336260,-74158.044206
20831.587430,2368.659014,18653.189738,-75383.797003
20831.590008,1776.494261,10214.842000,-75996.673402
20831.592586,11547.212695,7994.224174,-72012.976812
20831.595163,-22058.137072,5477.523971,-73698.386908
20831.597741,-2960.823768,-1776.494261,-78141.740796
20831.600319,2072.576638,3256.906145,-76915.987999
20831.602896,10066.800811,6513.812290,-75996.673402
20831.605474,296.082377,1776.494261,-76303.111601
20831.608052,0.000000,-2368.659014,-74924.139704
20831.610629,-5921.647536,1480.411884,-73545.167808
20831.613208,-7254.018232,11251.130318,-74464.482406
20831.615787,2072.576638,11547.212695,-77375.645298
20831.618366,10510.924376,8438.347739,-77069.207099
20831.620944,-740.205942,148.041188,-74311.263306
20831.623523,-5773.606348,-4293.194464,-74617.701505
20831.626102,-2516.700203,-2960.823768,-76149.892501
20831.628680,-1036.288319,13915.871710,-74617.701505
20831.631259,1628.453072,8142.265362,-76762.768900
20831.633838,1924.535449,1776.494261,-75843.454302
20831.636416,4589.276840,3404.947333,-73391.948708
20831.638995,-4737.318029,4589.276840,-74464.482406
20831.641574,-4737.318029,9326.594869,-74311.263306
20831.644152,-2664.741391,7105.977043,-76149.892501
20831.646731,-296.082377,1480.411884,-78141.740796
20831.649310,2220.617826,-296.082377,-75383.797003
20831.651888,-1776.494261,-2960.823768,-75383.797003
20831.654467,1480.411884,1924.535449,-76456.330700
20831.657046,-3997.112087,4145.153275,-74770.920605
20831.659624,-4737.318029,1776.494261,-75230.577904
20831.662203,3108.864956,-888.247130,-76456.330700
20831.664782,6217.729913,7105.977043,-75843.454302
20831.667360,-3108.864956,9770.718434,-75383.797003
20831.669939,-8438.347739,2960.823768,-74617.701505
20831.672518,26647.413912,9178.553681,-73391.948708
20831.675096,-18209.066173,8734.430116,-74617.701505
20831.677675,592.164754,9474.636058,-77222.426198
20831.680254,20281.642811,14952.160028,-73851.606007
20831.682832,-3404.947333,15396.283594,-73851.606007
20831.685411,11399.171507,10510.924376,-74924.139704
20831.687990,3256.906145,2664.741391,-74924.139704
20831.690568,-5773.606348,1184.329507,-76303.111601
20831.693147,0.000000,5181.441594,-75690.235202
20831.695726,12879.583391,10658.965565,-75537.016103
20831.698304,9770.718434,11695.253884,-75996.673402
20831.700883,2220.617826,10807.006753,-73698.386908
20831.703462,3256.906145,10955.047942,-72625.853210
20831.706040,5329.482782,2072.576638,-75537.016103
20831.708619,-5181.441594,6069.688724,-75690.235202
20831.711198,4293.194464,13027.624579,-74770.920605
20831.713777,6957.935855,11103.089130,-75230.577904
20831.716355,4145.153275,6069.688724,-75843.454302
20831.718934,7550.100608,8290.306550,-73238.729609
20831.721513,3849.070898,11843.295072,-72932.291410
20831.724091,7254.018232,17764.942608,-75690.235202
20831.726670,7402.059420,16432.571912,-75843.454302
20831.729249,296.082377,10510.924376,-74464.482406
20831.731828,888.247130,-444.123565,-74770.920605
20831.734406,-296.082377,-3552.988522,-75230.577904
20831.736985,14508.036463,7254.018232,-74158.044206
20831.739564,9326.594869,17764.942608,-73698.386908
20831.742143,3552.988522,13619.789333,-76303.111601
20831.744721,9770.718434,9030.512492,-73545.167808
20831.747300,-14063.912898,7698.141797,-72625.853210
20831.749879,-9178.553681,-4293.194464,-76762.768900
20831.752458,3256.906145,1332.370696,-76762.768900
20831.755036,5625.565159,4441.235652,-76609.549800
20831.757615,5773.606348,5329.482782,-75077.358804
20831.760194,-10807.006753,-592.164754,-75537.016103
20831.762773,-6513.812290,148.041188,-73391.948708
20831.765351,-5181.441594,8734.430116,-75383.797003
20831.767930,148.041188,10510.924376,-77375.645298
20831.770509,14656.077652,9770.718434,-77069.207099
20831.773088,-5033.400406,1628.453072,-74924.139704
20831.775667,-296.082377,-2664.741391,-74004.825107
20831.778245,-10955.047942,-3108.864956,-74464.482406
20831.780824,-3552.988522,9474.636058,-73851.606007
20831.783403,3849.070898,11251.130318,-74770.920605
20831.785982,0.000000,2812.782580,-75690.235202
20831.788560,2960.823768,3256.906145,-75230.577904
20831.791139,-148.041188,1036.288319,-75230.577904
20831.793718,-6513.812290,7254.018232,-75230.577904
20831.796297,-5921.647536,6957.935855,-76456.330700
20831.798875,-888.247130,4293.194464,-77528.864398
20831.801454,4293.194464,-740.205942,-76915.987999
20831.804033,1184.329507,-1628.453072,-73545.167808
20831.806612,-1924.535449,1776.494261,-75690.235202
20831.809190,-10510.924376,4737.318029,-75843.454302
20831.811769,592.164754,1628.453072,-74924.139704
20831.814348,1480.411884,5773.606348,-75230.577904
20831.816927,4293.194464,6957.935855,-76456.330700
20831.819505,-2516.700203,6365.771101,-74924.139704
20831.822084,-3404.947333,-1924.535449,-75230.577904
20831.824663,23094.425390,12879.583391,-73238.729609
20831.827242,-21910.095883,7994.224174,-75690.235202
20831.829821,24426.796086,9918.759623,-75843.454302
20831.832400,12583.501014,17024.736666,-73391.948708
20831.834978,-4293.194464,14063.912898,-72779.072310
20831.837557,5477.523971,10214.842000,-74464.482406
20831.840136,1480.411884,3701.029710,-73698.386908
20831.842715,-3108.864956,3849.070898,-74770.920605
20831.845294,740.205942,6217.729913,-75230.577904
20831.847873,11103.089130,10807.006753,-76303.111601
20831.850451,11547.212695,12435.459826,-74924.139704
20831.853030,-2812.782580,11103.089130,-73238.729609
20831.855609,9474.636058,6809.894666,-74311.263306
20831.858188,-2812.782580,2960.823768,-75996.673402
20831.860767,4441.235652,11399.171507,-75230.577904
20831.863346,2812.782580,9622.677246,-76303.111601
20831.865924,9178.553681,10658.965565,-77375.645298
20831.868503,5033.400406,6365.771101,-73698.386908
20831.871082,2220.617826,9030.512492,-70940.443115
20831.873661,8142.265362,16432.571912,-73085.510509
20831.876240,2516.700203,15248.242405,-77222.426198
20831.878819,3404.947333,13619.789333,-75230.577904
20831.881397,740.205942,3404.947333,-74464.482406
20831.883976,3701.029710,-1776.494261,-75996.673402
20831.886555,12879.583391,4441.235652,-74617.701505
20831.889134,-888.247130,15692.365970,-74004.825107
20831.891713,5773.606348,13767.830521,-75537.016103
20831.894292,7550.100608,11695.253884,-73698.386908
20831.896870,-17172.777854,7994.224174,-74311.263306
20831.899449,-2812.782580,-3849.070898,-76762.768900
20831.902028,-2368.659014,888.247130,-75230.577904
20831.904607,9326.594869,5033.400406,-76609.549800
20831.907186,2072.576638,4885.359217,-76456.330700
20831.909765,-4589.276840,1480.411884,-74617.701505
20831.912343,-7698.141797,740.205942,-74158.044206
20831.914922,-7846.182985,8734.430116,-74464.482406
20831.917501,2516.700203,8586.388927,-76456.330700
20831.920080,12435.459826,9474.636058,-77222.426198
20831.922659,-2960.823768,2072.576638,-75383.797003
20831.925238,-1776.494261,-1480.411884,-73851.606007
20831.927817,-7846.182985,-3997.112087,-75537.016103
20831.930396,-7994.224174,6217.729913,-75537.016103
20831.932975,8882.471304,11547.212695,-75996.673402
20831.935554,3997.112087,2664.741391,-76303.111601
20831.938133,-888.247130,3108.864956,-74004.825107
20831.940712,-3256.906145,888.247130,-74158.044206
20831.943291,-4441.235652,4885.359217,-74924.139704
20831.945870,-6661.853478,6661.853478,-76456.330700
20831.948449,-592.164754,3849.070898,-76762.768900
20831.951028,11695.253884,444.123565,-75843.454302
20831.953607,-5625.565159,-444.123565,-74617.701505
20831.956186,-1184.329507,2664.741391,-74924.139704
20831.958765,-10214.842000,-888.247130,-78754.617194
20831.961344,8734.430116,3849.070898,-75077.358804
20831.963923,-888.247130,8734.430116,-75537.016103
20831.966502,3256.906145,7402.059420,-77528.864398
20831.969081,-9030.512492,-888.247130,-75537.016103
20831.971660,26647.413912,9178.553681,-70940.443115
20831.974239,-19985.560434,8290.306550,-76149.892501
20831.976818,17172.777854,14952.160028,-75843.454302
20831.979397,13767.830521,15840.407159,-74158.044206
20831.981976,2072.576638,15100.201217,-74158.044206
20831.984555,9918.759623,9622.677246,-74924.139704
20831.987134,-2812.782580,3108.864956,-75383.797003
20831.989713,5773.606348,3701.029710,-76303.111601
20831.992292,-7550.100608,5625.565159,-74464.482406
20831.994871,21021.848753,9474.636058,-76915.987999
20831.997450,6069.688724,8142.265362,-75843.454302
20832.000029,2072.576638,15248.242405,-70787.224015
20832.002608,3108.864956,10807.006753,-72472.634111
20832.005187,1480.411884,3256.906145,-76915.987999
20832.007766,-148.041188,6957.935855,-74770.920605
20832.010345,3849.070898,9622.677246,-75383.797003
20832.012924,11251.130318,9474.636058,-77682.083497
20832.015503,4885.359217,7698.141797,-75077.358804
20832.018082,8438.347739,11103.089130,-72319.415011
20832.020661,1628.453072,12879.583391,-73085.510509
20832.023240,5181.441594,16728.654289,-75077.358804
20832.025819,-6217.729913,9030.512492,-76915.987999
20832.028397,7105.977043,7550.100608,-74311.263306
20832.030976,5773.606348,740.205942,-74770.920605
20832.033554,19837.519246,8734.430116,-74617.701505
20832.036132,-8142.265362,12139.377449,-74464.482406
20832.038711,7105.977043,8586.388927,-74617.701505
20832.041289,1924.535449,13471.748144,-73851.606007
20832.043868,-23686.590144,6069.688724,-75843.454302
20832.046446,10955.047942,-1332.370696,-76456.330700
20832.049024,-592.164754,2072.576638,-75077.358804
20832.051603,13767.830521,6069.688724,-75537.016103
20832.054181,-7698.141797,0.000000,-76303.111601
20832.056760,3701.029710,-740.205942,-74617.701505
20832.059338,-12139.377449,3404.947333,-75383.797003
20832.061917,-4441.235652,10658.965565,-75230.577904
20832.064495,3256.906145,7994.224174,-77069.207099
20832.067073,8142.265362,6809.894666,-75690.235202
20832.069652,-2960.823768,296.082377,-73391.948708
20832.072230,-7550.100608,-1332.370696,-73698.386908
20832.074809,-1036.288319,2812.782580,-76303.111601
20832.077387,-7254.018232,8142.265362,-76303.111601
20832.079965,12879.583391,9178.553681,-75996.673402
20832.082544,-2368.659014,2220.617826,-75383.797003
20832.085122,-592.164754,1924.535449,-74311.263306
20832.087701,-3256.906145,296.082377,-75383.797003
20832.090279,-10066.800811,6661.853478,-75230.577904
20832.092858,-888.247130,5181.441594,-77222.426198
20832.095436,10362.883188,4441.235652,-75383.797003
20832.098014,-3108.864956,-444.123565,-73698.386908
20832.100593,0.000000,-148.041188,-73545.167808
20832.103171,-17912.983796,-4293.194464,-76609.549800
20832.105750,12879.583391,148.041188,-76303.111601
20832.108328,-6217.729913,10362.883188,-75690.235202
20832.110907,444.123565,9178.553681,-77375.645298
20832.113485,148.041188,-1036.288319,-76762.768900
20832.116064,22502.260637,10214.842000,-71553.319513
20832.118642,-17024.736666,10214.842000,-74158.044206
20832.121221,12287.418637,12583.501014,-76609.549800
20832.123799,19541.436869,13619.789333,-76303.111601
20832.126378,1924.535449,15840.407159,-73545.167808
20832.128956,8438.347739,10066.800811,-74770.920605
20832.131535,296.082377,1924.535449,-75383.797003
20832.134113,-296.082377,4737.318029,-75537.016103
20832.136692,-1184.329507,6661.853478,-74770.920605
20832.139271,15396.283594,9622.677246,-76303.111601
20832.141849,4293.194464,8882.471304,-75843.454302
20832.144428,6661.853478,11843.295072,-73545.167808
20832.147006,2072.576638,7402.059420,-74617.701505
20832.149585,2664.741391,4293.194464,-76303.111601
20832.152163,0.000000,8290.306550,-75230.577904
20832.154742,9178.553681,11695.253884,-73545.167808
20832.157320,7402.059420,9622.677246,-74924.139704
20832.159899,6513.812290,9770.718434,-74617.701505
20832.162477,6365.771101,11399.171507,-72166.195912
20832.165056,1332.370696,13915.871710,-72319.415011
20832.167634,-592.164754,14211.954086,-75537.016103
20832.170213,2072.576638,8882.471304,-75230.577904
20832.172791,6661.853478,3552.988522,-74311.263306
20832.175370,19393.395680,6957.935855,-74924.139704
20832.177949,1332.370696,10362.883188,-75230.577904
20832.180527,-2664.741391,8734.430116,-75690.235202
20832.183106,13915.871710,8142.265362,-73698.386908
20832.185684,-10214.842000,11843.295072,-74311.263306
20832.188263,-5625.565159,-888.247130,-78448.178995
20832.190841,2072.576638,1480.411884,-75537.016103
20832.193420,7846.182985,4885.359217,-74924.139704
20832.195998,1628.453072,3404.947333,-75996.673402
20832.198577,-4441.235652,444.123565,-76456.330700
20832.201155,-2812.782580,-592.164754,-74311.263306
20832.203734,-6957.935855,5329.482782,-75690.235202
20832.206312,2664.741391,7994.224174,-76762.768900
20832.208891,11103.089130,7698.141797,-76762.768900
20832.211468,-1628.453072,5329.482782,-74770.920605
20832.214046,-4441.235652,592.164754,-73698.386908
20832.216624,-9030.512492,-888.247130,-75077.358804
20832.219201,-1628.453072,6809.894666,-75690.235202
20832.221779,-148.041188,10807.006753,-75537.016103
20832.224356,8290.306550,7550.100608,-76303.111601
20832.226934,444.123565,888.247130,-74770.920605
20832.229512,-3552.988522,1184.329507,-74311.263306
20832.232089,-5181.441594,1924.535449,-74464.482406
20832.234667,-3404.947333,3997.112087,-76762.768900
20832.237244,7105.977043,5181.441594,-77375.645298
20832.239822,2960.823768,1480.411884,-74617.701505
20832.242399,-1924.535449,1184.329507,-73545.167808
20832.244977,-21910.095883,-7402.059420,-75383.797003
20832.247555,18061.024985,-2072.576638,-76915.987999
20832.250132,-5773.606348,9918.759623,-74770.920605
20832.252710,-4885.359217,16432.571912,-75537.016103
20832.255287,6513.812290,-1184.329507,-77222.426198
20832.257865,18949.272115,12139.377449,-71246.881314
20832.260442,-15840.407159,10066.800811,-72625.853210
20832.263020,14359.995275,11251.130318,-74464.482406
20832.265598,16284.530724,14063.912898,-75690.235202
20832.268175,1184.329507,16876.695478,-73698.386908
20832.270753,6365.771101,12287.418637,-74158.044206
20832.273330,-2220.617826,2960.823768,-74924.139704
20832.275908,3552.988522,5625.565159,-74770.920605
20832.278485,-3552.988522,4885.359217,-74617.701505
20832.281063,18949.272115,10955.047942,-76609.549800
20832.283641,3108.864956,8882.471304,-76303.111601
20832.286218,2664.741391,12139.377449,-73085.510509
20832.288796,296.082377,9474.636058,-73545.167808
20832.291373,3256.906145,4293.194464,-75537.016103
20832.293951,-148.041188,10214.842000,-74311.263306
20832.296528,10362.883188,11991.336260,-75077.358804
20832.299106,9622.677246,10807.006753,-74770.920605
20832.301684,5921.647536,8586.388927,-74004.825107
20832.304261,4885.359217,10658.965565,-72625.853210
20832.306839,-740.205942,12879.583391,-73238.729609
20832.309416,-2220.617826,10066.800811,-76609.549800
20832.311994,2664.741391,8438.347739,-76303.111601
20832.314571,14063.912898,7698.141797,-74464.482406
20832.317148,18209.066173,10214.842000,-74464.482406
20832.319724,-11695.253884,7105.977043,-75537.016103
20832.322301,8290.306550,5477.523971,-74924.139704
20832.324878,-148.041188,14359.995275,-71859.757712
20832.327455,-27831.743419,5329.482782,-77528.864398
20832.330032,16284.530724,-740.205942,-78141.740796
20832.332608,0.000000,888.247130,-75843.454302
20832.335185,13915.871710,5921.647536,-75077.358804
20832.337762,-9178.553681,-1480.411884,-77069.207099
20832.340339,0.000000,-1184.329507,-75383.797003
20832.342915,-11399.171507,3701.029710,-74311.263306
20832.345492,-4885.359217,7550.100608,-75690.235202
20832.348069,6809.894666,7105.977043,-77222.426198
20832.350646,9326.594869,6217.729913,-75077.358804
20832.353223,-3404.947333,2812.782580,-73391.948708
20832.355799,-7254.018232,-1480.411884,-75537.016103
20832.358376,-3256.906145,4145.153275,-77375.645298
20832.360953,-1184.329507,7698.141797,-75077.358804
20832.363530,6513.812290,8290.306550,-74770.920605
20832.366107,0.000000,4293.194464,-73545.167808
20832.368683,740.205942,740.205942,-73391.948708
20832.371260,-3849.070898,1332.370696,-72932.291410
20832.373837,-8882.471304,2516.700203,-74770.920605
20832.376414,3108.864956,5477.523971,-76762.768900
20832.378991,3552.988522,2072.576638,-76609.549800
20832.381567,-4293.194464,1628.453072,-74464.482406
20832.384144,-15840.407159,-7550.100608,-76149.892501
20832.386721,18505.148550,-2664.741391,-76762.768900
20832.389298,-2664.741391,9326.594869,-74617.701505
20832.391875,-14804.118840,14359.995275,-74158.044206
20832.394451,11251.130318,3701.029710,-77528.864398
20832.397028,15544.324782,14359.995275,-72932.291410
20832.399605,-16580.613101,10214.842000,-72472.634111
20832.402182,18357.107362,10066.800811,-73698.386908
20832.404759,11547.212695,14508.036463,-74004.825107
20832.407335,-3552.988522,17024.736666,-73698.386908
20832.409912,6217.729913,13175.665768,-75537.016103
20832.412489,-1776.494261,4145.153275,-75690.235202
20832.415066,1924.535449,4145.153275,-75996.673402
20832.417642,1036.288319,4589.276840,-74770.920605
20832.420219,12435.459826,7994.224174,-76456.330700
20832.422795,6069.688724,9030.512492,-75843.454302
20832.425371,-444.123565,10214.842000,-74311.263306
20832.427948,5033.400406,9178.553681,-73698.386908
20832.430524,2220.617826,6217.729913,-75230.577904
20832.433101,592.164754,7698.141797,-74770.920605
20832.435677,13471.748144,13323.706956,-74311.263306
20832.438253,4145.153275,9622.677246,-76149.892501
20832.440830,8734.430116,11103.089130,-74770.920605
20832.443406,1628.453072,12583.501014,-73545.167808
20832.445983,-3701.029710,9622.677246,-74770.920605
20832.448559,1924.535449,10807.006753,-74617.701505
20832.451135,8438.347739,7254.018232,-75077.358804
20832.453712,22206.178260,13175.665768,-73851.606007
20832.456288,148.041188,11991.336260,-74004.825107
20832.458865,-7698.141797,3997.112087,-76609.549800
20832.461441,20577.725188,3997.112087,-74311.263306
20832.464017,-16432.571912,12139.377449,-74004.825107
20832.466594,8290.306550,-1184.329507,-79980.369991
20832.469170,-2664.741391,2220.617826,-76456.330700
20832.471747,5921.647536,5329.482782,-74004.825107
20832.474323,-888.247130,3701.029710,-74617.701505
20832.476899,-2072.576638,1036.288319,-76762.768900
20832.479476,-4441.235652,296.082377,-74770.920605
20832.482052,-6217.729913,6365.771101,-75537.016103
20832.484629,6069.688724,5477.523971,-78141.740796
20832.487205,9030.512492,4589.276840,-75843.454302
20832.489781,-296.082377,1776.494261,-73851.606007
20832.492358,-5181.441594,2072.576638,-73851.606007
20832.494934,-4145.153275,-592.164754,-75690.235202
20832.497511,-7846.182985,10955.047942,-76149.892501
20832.500087,4737.318029,8734.430116,-76915.987999
20832.502663,8438.347739,2072.576638,-76149.892501
20832.505240,-4441.235652,888.247130,-75843.454302
20832.507816,-3404.947333,444.123565,-76456.330700
20832.510393,-2516.700203,3108.864956,-75690.235202
20832.512969,-6365.771101,4145.153275,-76456.330700
20832.515545,7105.977043,4589.276840,-76915.987999
20832.518122,-1924.535449,740.205942,-74464.482406
20832.520697,-9326.594869,-6809.894666,-75383.797003
20832.523273,16432.571912,-444.123565,-75996.673402
20832.525848,-2960.823768,7994.224174,-74464.482406
20832.528424,-13619.789333,11695.253884,-75383.797003
20832.530999,14952.160028,2664.741391,-76915.987999
20832.533574,12731.542202,16284.530724,-72932.291410
20832.536150,-13767.830521,11399.171507,-72932.291410
20832.538725,18801.230927,8734.430116,-74311.263306
20832.541301,8438.347739,15100.201217,-74158.044206
20832.543876,-8142.265362,15248.242405,-74004.825107
20832.546451,9326.594869,13323.706956,-75230.577904
20832.549027,-740.205942,5181.441594,-74617.701505
20832.551602,3849.070898,5921.647536,-75230.577904
20832.554178,3849.070898,5329.482782,-74770.920605
20832.556753,10658.965565,8142.265362,-75996.673402
20832.559328,6069.688724,9326.594869,-75383.797003
20832.561904,-1776.494261,7698.141797,-74770.920605
20832.564479,11843.295072,8586.388927,-74311.263306
20832.567055,-888.247130,3108.864956,-77069.207099
20832.569630,10066.800811,11251.130318,-73545.167808
20832.572206,4145.153275,10658.965565,-73391.948708
20832.574781,7254.018232,11547.212695,-74924.139704
20832.577356,6661.853478,11103.089130,-74617.701505
20832.579932,-3701.029710,10362.883188,-73698.386908
20832.582507,4885.359217,11251.130318,-74770.920605
20832.585083,0.000000,6513.812290,-76303.111601
20832.587658,23834.631332,11843.295072,-75383.797003
20832.590233,6217.729913,12435.459826,-74617.701505
20832.592809,-8734.430116,6069.688724,-75230.577904
20832.595384,12435.459826,1776.494261,-74924.139704
20832.597960,-7402.059420,12139.377449,-71706.538613
20832.600535,-21614.013506,5329.482782,-76149.892501
20832.603111,9178.553681,2516.700203,-77222.426198
20832.605686,2516.700203,4293.194464,-75230.577904
20832.608261,7846.182985,4885.359217,-74464.482406
20832.610837,-11695.253884,-1036.288319,-76762.768900
20832.613412,-3701.029710,-888.247130,-75996.673402
20832.615988,-7846.182985,5181.441594,-74311.263306
20832.618563,-3552.988522,6661.853478,-76303.111601
20832.621138,9770.718434,5921.647536,-78294.959896
20832.623713,3108.864956,3849.070898,-73698.386908
20832.626287,-2960.823768,592.164754,-74311.263306
20832.628861,-8290.306550,740.205942,-76149.892501
20832.631435,-2072.576638,6957.935855,-75843.454302
20832.634009,-5329.482782,7105.977043,-77069.207099
20832.636584,12139.377449,8586.388927,-75537.016103
20832.639158,-2664.741391,296.082377,-74770.920605
20832.641732,-2368.659014,1480.411884,-73698.386908
20832.644306,2516.700203,3256.906145,-74617.701505
20832.646880,-11547.212695,3256.906145,-75690.235202
20832.649455,3701.029710,4293.194464,-78141.740796
20832.652029,-1036.288319,296.082377,-75843.454302
20832.654603,-9326.594869,-6069.688724,-75383.797003
20832.657177,12139.377449,-296.082377,-75230.577904
20832.659751,-148.041188,6217.729913,-75843.454302
20832.662326,-14211.954086,9622.677246,-75230.577904
20832.664900,20577.725188,2368.659014,-75843.454302
20832.667474,3552.988522,15100.201217,-74158.044206
20832.670048,-9918.759623,11399.171507,-74158.044206
20832.672622,22798.343014,10066.800811,-73085.510509
20832.675197,11399.171507,14952.160028,-72779.072310
20832.677771,-8586.388927,13471.748144,-73085.510509
20832.680345,7550.100608,11547.212695,-75843.454302
20832.682919,-888.247130,5329.482782,-75690.235202
20832.685493,3108.864956,8882.471304,-74464.482406
20832.688068,7698.141797,5773.606348,-76303.111601
20832.690642,9474.636058,8438.347739,-75537.016103
20832.693216,6809.894666,9474.636058,-74617.701505
20832.695790,-1924.535449,10807.006753,-74004.825107
20832.698364,7846.182985,5921.647536,-75077.358804
20832.700939,-592.164754,6809.894666,-74158.044206
20832.703513,4589.276840,12287.418637,-74924.139704
20832.706087,11251.130318,12287.418637,-73698.386908
20832.708661,5033.400406,10510.924376,-73698.386908
20832.711235,4589.276840,10658.965565,-74464.482406
20832.713809,-1924.535449,9474.636058,-73851.606007
20832.716384,-3404.947333,9918.759623,-74004.825107
20832.718958,10066.800811,10214.842000,-76456.330700
20832.721532,21021.848753,14804.118840,-74464.482406
20832.724106,3256.906145,14063.912898,-73545.167808
20832.726685,2664.741391,2220.617826,-77069.207099
20832.729259,13175.665768,5477.523971,-74004.825107
20832.731832,-28719.990550,7105.977043,-75383.797003
20832.734405,6957.935855,-444.123565,-79367.493593
20832.736979,1036.288319,3849.070898,-76762.768900
20832.739552,4885.359217,3997.112087,-74924.139704
20832.742126,1480.411884,2812.782580,-74464.482406
20832.744699,-4441.235652,592.164754,-75996.673402
20832.747272,-8586.388927,2368.659014,-74924.139704
20832.749846,-10807.006753,8438.347739,-74617.701505
20832.752419,5625.565159,4441.235652,-77835.302597
20832.754993,8142.265362,1628.453072,-76762.768900
20832.757566,-1332.370696,3701.029710,-73851.606007
20832.760139,-4589.276840,1480.411884,-73545.167808
20832.762713,-1036.288319,2664.741391,-76149.892501
20832.765286,-10658.965565,8882.471304,-76915.987999
20832.767860,4737.318029,7402.059420,-75996.673402
20832.770433,5181.441594,3108.864956,-74158.044206
20832.773006,-2368.659014,592.164754,-73545.167808
20832.775580,-2368.659014,1332.370696,-74464.482406
20832.778153,-3108.864956,3552.988522,-75230.577904
20832.780727,-6365.771101,3552.988522,-76303.111601
20832.783300,-296.082377,1924.535449,-76456.330700
20832.785873,-7550.100608,-5477.523971,-76456.330700
20832.788447,19097.313304,1628.453072,-75383.797003
20832.791020,-6365.771101,5921.647536,-75843.454302
20832.793594,-9770.718434,9030.512492,-75690.235202
20832.796167,13027.624579,2072.576638,-74924.139704
20832.798741,5773.606348,16728.654289,-72779.072310
20832.801314,-11843.295072,12879.583391,-76149.892501
20832.803887,23538.548956,11547.212695,-74924.139704
20832.806461,18949.272115,12879.583391,-73851.606007
20832.809034,-4293.194464,12731.542202,-73238.729609
20832.811608,8438.347739,11251.130318,-75690.235202
20832.814181,-3256.906145,5477.523971,-74617.701505
20832.816754,3108.864956,8290.306550,-74770.920605
20832.819328,2072.576638,5477.523971,-76149.892501
20832.821901,12731.542202,9770.718434,-75690.235202
20832.824475,2960.823768,6365.771101,-75230.577904
20832.827048,2664.741391,13027.624579,-74004.825107
20832.829620,1628.453072,6217.729913,-74924.139704
20832.832192,-4293.194464,7550.100608,-74770.920605
20832.834765,10658.965565,12731.542202,-74311.263306
20832.837337,6217.729913,12583.501014,-74617.701505
20832.839909,10658.965565,12731.542202,-75230.577904
20832.842481,-1184.329507,8586.388927,-74004.825107
20832.845053,4293.194464,8586.388927,-73851.606007
20832.847626,-5773.606348,6513.812290,-74770.920605
20832.850198,18653.189738,13175.665768,-76149.892501
20832.852770,10066.800811,12879.583391,-75537.016103
20832.855342,-2368.659014,9770.718434,-74158.044206
20832.857914,8438.347739,1036.288319,-75230.577904
20832.860487,-2664.741391,8290.306550,-73391.948708
20832.863059,-24574.837274,4589.276840,-77528.864398
20832.865631,15100.201217,1332.370696,-77222.426198
20832.868203,1628.453072,2516.700203,-76915.987999
20832.870776,9770.718434,4885.359217,-75383.797003
20832.873348,-11695.253884,444.123565,-75843.454302
20832.875920,-1480.411884,-148.041188,-75230.577904
20832.878492,-7402.059420,5181.441594,-74311.263306
20832.881064,-12731.542202,8586.388927,-75996.673402
20832.883637,11991.336260,6365.771101,-77222.426198
20832.886209,2812.782580,1480.411884,-76149.892501
20832.888781,740.205942,2072.576638,-73391.948708
20832.891353,-8438.347739,1480.411884,-75843.454302
20832.893925,-1924.535449,6513.812290,-75230.577904
20832.896498,-8290.306550,10066.800811,-75077.358804
20832.899070,6217.729913,7105.977043,-74617.701505
20832.901642,1924.535449,2220.617826,-74617.701505
20832.904214,-296.082377,1184.329507,-74924.139704
20832.906787,-740.205942,2220.617826,-75230.577904
20832.909359,-7402.059420,3404.947333,-76149.892501
20832.911931,-3849.070898,3552.988522,-77222.426198
20832.914503,-9474.636058,-5033.400406,-77375.645298
20832.917075,17764.942608,-592.164754,-75230.577904
20832.919648,-8882.471304,2220.617826,-75996.673402
20832.922220,-2072.576638,7698.141797,-75996.673402
20832.924792,-444.123565,1776.494261,-76609.549800
20832.927364,9622.677246,18653.189738,-72166.195912
20832.929936,-15544.324782,12731.542202,-75230.577904
20832.932508,25018.960840,12139.377449,-75077.358804
20832.935079,20429.683999,11695.253884,-74311.263306
20832.937650,-5329.482782,12879.583391,-72319.415011
20832.940221,7994.224174,11399.171507,-75383.797003
20832.942792,2220.617826,5181.441594,-76456.330700
20832.945363,-1480.411884,7846.182985,-75690.235202
20832.947934,3849.070898,6069.688724,-74924.139704
20832.950505,11251.130318,6661.853478,-76762.768900
20832.953076,6217.729913,8290.306550,-74770.920605
20832.955648,-148.041188,12139.377449,-72625.853210
20832.958219,6365.771101,5329.482782,-75230.577904
20832.960790,1628.453072,8290.306550,-74770.920605
20832.963361,4441.235652,11251.130318,-75843.454302
20832.965932,14359.995275,12139.377449,-75537.016103
20832.968503,4145.153275,11843.295072,-74158.044206
20832.971074,1924.535449,7402.059420,-75077.358804
20832.973645,-1776.494261,9770.718434,-73238.729609
20832.976217,1184.329507,9178.553681,-74004.825107
20832.978788,18357.107362,15248.242405,-75077.358804
20832.981359,11251.130318,16284.530724,-75843.454302
20832.983930,-5181.441594,7846.182985,-74004.825107
20832.986501,13027.624579,1332.370696,-74464.482406
20832.989072,-18061.024985,5477.523971,-74617.701505
20832.991643,-11991.336260,-296.082377,-76915.987999
20832.994214,8142.265362,4145.153275,-75690.235202
20832.996785,4589.276840,4293.194464,-75383.797003
20832.999357,9030.512492,5773.606348,-74924.139704
20833.001928,-16284.530724,-296.082377,-74770.920605
20833.004499,0.000000,-2072.576638,-75077.358804
20833.007070,-9326.594869,5033.400406,-74464.482406
20833.009641,-10955.047942,7994.224174,-77069.207099
20833.012212,13027.624579,6365.771101,-78754.617194
20833.014783,148.041188,1480.411884,-75690.235202
20833.017354,-148.041188,2812.782580,-73698.386908
20833.019925,-8142.265362,592.164754,-76762.768900
20833.022497,4293.194464,9030.512492,-77835.302597
20833.025068,-13471.748144,6661.853478,-75996.673402
20833.027639,9326.594869,5921.647536,-74770.920605
20833.030210,1184.329507,444.123565,-76303.111601
20833.032781,-592.164754,1776.494261,-75383.797003
20833.035352,-5477.523971,2664.741391,-74617.701505
20833.037922,-4293.194464,2516.700203,-75077.358804
20833.040492,-10658.965565,-1776.494261,-78141.740796
20833.043063,-148.041188,-4441.235652,-76915.987999
20833.045633,18357.107362,6513.812290,-74464.482406
20833.048204,-6661.853478,7402.059420,-75383.797003
20833.050774,-4589.276840,6069.688724,-76303.111601
20833.053345,12435.459826,9474.636058,-72472.634111
20833.055915,-9474.636058,13027.624579,-74924.139704
20833.058486,3404.947333,10807.006753,-78141.740796
20833.061056,21614.013506,9030.512492,-75843.454302
20833.063627,6217.729913,12583.501014,-72779.072310
20833.066197,-3552.988522,9326.594869,-73698.386908
20833.068768,7550.100608,9178.553681,-75383.797003
20833.071338,-7994.224174,6069.688724,-75996.673402
20833.073909,2960.823768,10510.924376,-73851.606007
20833.076479,10066.800811,8734.430116,-76303.111601
20833.079050,8142.265362,8438.347739,-76149.892501
20833.081620,1480.411884,11991.336260,-73698.386908
20833.084191,-3552.988522,6809.894666,-73851.606007
20833.086761,12139.377449,5329.482782,-75383.797003
20833.089331,-3404.947333,8290.306550,-75537.016103
20833.091902,17024.736666,14656.077652,-73391.948708
20833.094472,4145.153275,12583.501014,-75537.016103
20833.097043,1184.329507,7698.141797,-75537.016103
20833.099613,4885.359217,9030.512492,-73851.606007
20833.102184,-2812.782580,8734.430116,-74004.825107
20833.104754,17320.819043,15100.201217,-75077.358804
20833.107325,11399.171507,18209.066173,-76303.111601
20833.109895,-3108.864956,9178.553681,-75996.673402
20833.112466,12731.542202,444.123565,-74617.701505
20833.115036,-17320.819043,5181.441594,-73851.606007
20833.117607,-10658.965565,-1036.288319,-78141.740796
20833.120177,5181.441594,2664.741391,-75230.577904
20833.122748,-296.082377,5329.482782,-75077.358804
20833.125318,13471.748144,7254.018232,-75996.673402
20833.127889,-15988.448347,444.123565,-74770.920605
20833.130459,-296.082377,-444.123565,-74464.482406
20833.133030,-9622.677246,2960.823768,-74770.920605
20833.135600,-2960.823768,6809.894666,-76609.549800
20833.138169,11251.130318,5625.565159,-77835.302597
20833.140739,3849.070898,3997.112087,-74924.139704
20833.143308,-2960.823768,2072.576638,-72166.195912
20833.145877,-9030.512492,1480.411884,-75383.797003
20833.148447,2220.617826,9030.512492,-77528.864398
20833.151016,-14656.077652,5477.523971,-77069.207099
20833.153585,11991.336260,7846.182985,-76456.330700
20833.156155,740.205942,296.082377,-75230.577904
20833.158724,888.247130,888.247130,-75690.235202
20833.161293,-5921.647536,888.247130,-74924.139704
20833.163862,-6957.935855,592.164754,-75690.235202
20833.166432,-9918.759623,-3849.070898,-77682.083497
20833.169001,7550.100608,148.041188,-75996.673402
20833.171570,7698.141797,6513.812290,-74770.920605
20833.174140,-3552.988522,8438.347739,-75077.358804
20833.176709,-5625.565159,1924.535449,-76456.330700
20833.179278,7550.100608,14952.160028,-70940.443115
20833.181848,-18801.230927,13027.624579,-74617.701505
20833.184417,24426.796086,15100.201217,-76915.987999
20833.186986,17172.777854,11991.336260,-74924.139704
20833.189556,-444.123565,14952.160028,-72166.195912
20833.192125,4885.359217,6809.894666,-74617.701505
20833.194694,5773.606348,5921.647536,-75383.797003
20833.197264,-4589.276840,6661.853478,-75690.235202
20833.199833,1184.329507,8142.265362,-74617.701505
20833.202402,15840.407159,7698.141797,-77375.645298
20833.204972,6217.729913,7550.100608,-75996.673402
20833.207541,-1480.411884,10510.924376,-72779.072310
20833.210110,9178.553681,7846.182985,-73851.606007
20833.212680,-888.247130,5477.523971,-75383.797003
20833.215249,6069.688724,13175.665768,-75537.016103
20833.217818,9178.553681,14359.995275,-75383.797003
20833.220388,7105.977043,11547.212695,-74311.263306
20833.222957,3108.864956,7254.018232,-74464.482406
20833.225526,-888.247130,7550.100608,-73391.948708
20833.228095,8734.430116,12583.501014,-74770.920605
20833.230665,15248.242405,18357.107362,-75230.577904
20833.233234,-1332.370696,13767.830521,-75996.673402
20833.235803,7846.182985,3256.906145,-74924.139704
20833.238373,9178.553681,5921.647536,-72472.634111
20833.240941,-24426.796086,-1776.494261,-79061.055394
20833.243510,11991.336260,-1184.329507,-77375.645298
20833.246078,-5033.400406,3108.864956,-75230.577904
20833.248647,17468.860231,8290.306550,-76609.549800
20833.251216,-6513.812290,3404.947333,-76303.111601
20833.253784,-1628.453072,2812.782580,-74464.482406
20833.256353,-5033.400406,148.041188,-74311.263306
20833.258921,-15396.283594,4589.276840,-75537.016103
20833.261490,6365.771101,5033.400406,-78448.178995
20833.264058,10658.965565,5181.441594,-77069.207099
20833.266627,888.247130,3997.112087,-74311.263306
20833.269195,-10066.800811,-148.041188,-75843.454302
20833.271764,7550.100608,5625.565159,-77375.645298
20833.274333,-17172.777854,6069.688724,-76303.111601
20833.276901,7994.224174,9178.553681,-76149.892501
20833.279470,2220.617826,2072.576638,-77069.207099
20833.282038,1184.329507,1332.370696,-75230.577904
20833.284607,-5033.400406,-592.164754,-74617.701505
20833.287175,-9474.636058,-1480.411884,-75383.797003
20833.289744,-8734.430116,-4885.359217,-76762.768900
20833.292312,8142.265362,1480.411884,-75843.454302
20833.294881,5329.482782,7105.977043,-75537.016103
20833.297450,-740.205942,8734.430116,-75383.797003
20833.300018,-5773.606348,-888.247130,-77069.207099
20833.302587,5773.606348,15692.365970,-71706.538613
20833.305155,-18801.230927,13323.706956,-74311.263306
20833.307724,27831.743419,13471.748144,-76915.987999
20833.310292,19393.395680,15248.242405,-75077.358804
20833.312861,-4441.235652,13471.748144,-71706.538613
20833.315429,10510.924376,10066.800811,-74158.044206
20833.317998,1036.288319,5773.606348,-75996.673402
20833.320567,-1628.453072,8142.265362,-75537.016103
20833.323135,4737.318029,7994.224174,-75383.797003
20833.325704,11399.171507,10214.842000,-75077.358804
20833.328272,7105.977043,7105.977043,-74004.825107
20833.330841,-5181.441594,7402.059420,-72932.291410
20833.333409,13471.748144,6513.812290,-73545.167808
20833.335978,-1628.453072,7402.059420,-75843.454302
20833.338546,9770.718434,14508.036463,-75537.016103
20833.341115,7254.018232,13027.624579,-76149.892501
20833.343654,5181.441594,10214.842000,-75537.016103
20833.346193,2960.823768,7402.059420,-74311.263306
20833.348732,1776.494261,9770.718434,-73238.729609
20833.351271,12731.542202,15988.448347,-73851.606007
20833.353810,7994.224174,18653.189738,-75230.577904
20833.356349,3256.906145,6661.853478,-76915.987999
20833.358888,9474.636058,4293.194464,-73238.729609
20833.361427,-18505.148550,3256.906145,-73698.386908
20833.363966,-2220.617826,-4589.276840,-78294.959896
20833.366505,-2516.700203,592.164754,-76456.330700
20833.369044,3552.988522,7846.182985,-75230.577904
20833.371583,8882.471304,6217.729913,-76149.892501
20833.374123,-7846.182985,2960.823768,-76303.111601
20833.376662,-4589.276840,-444.123565,-74311.263306
20833.379201,-7846.182985,2516.700203,-75077.358804
20833.381740,-1036.288319,2960.823768,-77528.864398
20833.384279,10066.800811,4441.235652,-76609.549800
20833.386818,3256.906145,3108.864956,-74617.701505
20833.389357,-4441.235652,3849.070898,-72319.415011
20833.391896,-1628.453072,888.247130,-74924.139704
20833.394435,-11843.295072,7105.977043,-75230.577904
20833.396974,-1628.453072,7105.977043,-76149.892501
20833.399513,592.164754,4885.359217,-75383.797003
20833.402052,4885.359217,3701.029710,-75996.673402
20833.404591,-5181.441594,148.041188,-75230.577904
20833.407130,-5773.606348,-444.123565,-74311.263306
20833.409669,-13767.830521,-6217.729913,-76456.330700
20833.412208,4885.359217,-148.041188,-76456.330700
20833.414747,10807.006753,9030.512492,-75690.235202
20833.417286,-1628.453072,10658.965565,-74464.482406
20833.419825,1480.411884,444.123565,-75996.673402
20833.422364,12731.542202,10807.006753,-72472.634111
20833.424903,-17616.901420,11843.295072,-74311.263306
20833.427442,19985.560434,13767.830521,-75996.673402
20833.429981,20725.766376,13619.789333,-76609.549800
20833.432520,-2072.576638,13175.665768,-73391.948708
20833.435059,10807.006753,8290.306550,-73851.606007
20833.437599,2072.576638,5773.606348,-75230.577904
20833.440138,-1776.494261,7105.977043,-75996.673402
20833.442677,2812.782580,9918.759623,-74464.482406
20833.445221,12879.583391,10066.800811,-75383.797003
20833.447765,7994.224174,9178.553681,-74464.482406
20833.450309,-3997.112087,7550.100608,-73391.948708
20833.452853,7994.224174,5033.400406,-74004.825107
20833.455397,3256.906145,7550.100608,-74311.263306
20833.457941,3404.947333,13323.706956,-74464.482406
20833.460485,8882.471304,13323.706956,-76456.330700
20833.463029,5181.441594,10362.883188,-75383.797003
20833.465573,2812.782580,7254.018232,-74311.263306
20833.468117,6069.688724,9178.553681,-74004.825107
20833.470661,13027.624579,16580.613101,-73391.948708
20833.473205,2812.782580,19689.478057,-74311.263306
20833.475749,4145.153275,6809.894666,-77222.426198
20833.478293,6365.771101,5921.647536,-73545.167808
20833.480837,-17764.942608,1628.453072,-75077.358804
20833.483381,-888.247130,-7254.018232,-78141.740796
20833.485925,-1480.411884,2812.782580,-75230.577904
20833.488469,4293.194464,7254.018232,-75690.235202
20833.491013,7846.182985,8142.265362,-76456.330700
20833.493557,-4441.235652,3552.988522,-75843.454302
20833.496101,-5181.441594,740.205942,-75383.797003
20833.498645,-8438.347739,1776.494261,-74004.825107
20833.501189,-444.123565,3108.864956,-77069.207099
20833.503733,7254.018232,5477.523971,-76915.987999
20833.506277,4441.235652,5625.565159,-74464.482406
20833.508821,-5625.565159,3701.029710,-73085.510509
20833.511365,1628.453072,3849.070898,-75690.235202
20833.513910,-14508.036463,2072.576638,-76303.111601
20833.516454,6365.771101,7550.100608,-75383.797003
20833.518998,888.247130,3256.906145,-76456.330700
20833.521542,2072.576638,3849.070898,-76609.549800
20833.524086,-1776.494261,-592.164754,-75383.797003
20833.526630,-14359.995275,-5477.523971,-74924.139704
20833.529174,-1924.535449,-5773.606348,-76762.768900
20833.531718,8438.347739,3849.070898,-76303.111601
20833.534262,2812.782580,10066.800811,-76609.549800
20833.536806,-8438.347739,4441.235652,-75537.016103
20833.539350,17912.983796,444.123565,-76149.892501
20833.541894,4145.153275,14804.118840,-72625.853210
20833.544438,-12435.459826,14804.118840,-73851.606007
20833.546986,25759.166782,12583.501014,-75996.673402
20833.549533,6365.771101,15692.365970,-74004.825107
20833.552081,740.205942,12287.418637,-72779.072310
20833.554629,6661.853478,8586.388927,-74464.482406
20833.557176,148.041188,6069.688724,-75383.797003
20833.559724,296.082377,10362.883188,-74617.701505
20833.562272,4145.153275,7550.100608,-75230.577904
20833.564819,16284.530724,10362.883188,-77222.426198
20833.567367,-444.123565,7846.182985,-75383.797003
20833.569915,5477.523971,5921.647536,-74311.263306
20833.572462,5921.647536,3552.988522,-74924.139704
20833.575010,2812.782580,11399.171507,-75077.358804
20833.577558,5033.400406,13323.706956,-75843.454302
20833.580105,5329.482782,13175.665768,-75383.797003
20833.582653,4441.235652,10955.047942,-74464.482406
20833.585201,7550.100608,10510.924376,-74158.044206
20833.587749,10362.883188,15692.365970,-72932.291410
20833.590296,6069.688724,19245.354492,-73085.510509
20833.592844,-1628.453072,7698.141797,-77682.083497
20833.595392,12139.377449,5033.400406,-74924.139704
20833.597939,-9474.636058,3404.947333,-74158.044206
20833.600487,-6069.688724,-6513.812290,-77835.302597
20833.603035,-4145.153275,-2220.617826,-76609.549800
20833.605582,0.000000,6957.935855,-74158.044206
20833.608130,6809.894666,7994.224174,-75230.577904
20833.610678,-4885.359217,4589.276840,-75690.235202
20833.613225,-5329.482782,1924.535449,-75230.577904
20833.615773,-9030.512492,1924.535449,-74617.701505
20833.618321,-1184.329507,1628.453072,-75690.235202
20833.620868,5329.482782,3552.988522,-78141.740796
20833.623416,5329.482782,4589.276840,-75996.673402
20833.625964,-2368.659014,6069.688724,-74158.044206
20833.628515,-1628.453072,2664.741391,-76456.330700
20833.631066,-11547.212695,2368.659014,-76149.892501
20833.633616,4737.318029,4589.276840,-75230.577904
20833.636167,1480.411884,5773.606348,-75843.454302
20833.638718,-740.205942,2960.823768,-76149.892501
20833.641269,-1776.494261,444.123565,-75537.016103
20833.643820,-11547.212695,-5773.606348,-74924.139704
20833.646371,-5773.606348,-7105.977043,-75230.577904
20833.648922,10807.006753,7105.977043,-76149.892501
20833.651473,148.041188,10362.883188,-75690.235202
20833.654023,-10658.965565,4885.359217,-75537.016103
20833.656574,23094.425390,1036.288319,-75077.358804
20833.659125,-2368.659014,13175.665768,-73085.510509
20833.661676,-14063.912898,14359.995275,-73545.167808
20833.664227,24426.796086,13323.706956,-74464.482406
20833.666778,8882.471304,14656.077652,-74617.701505
20833.669329,3404.947333,9474.636058,-74311.263306
20833.671880,5625.565159,7402.059420,-74158.044206
20833.674431,-1924.535449,6069.688724,-75690.235202
20833.676981,3701.029710,11399.171507,-74311.263306
20833.679532,296.082377,10214.842000,-73698.386908
20833.682083,15544.324782,11251.130318,-74770.920605
20833.684634,-296.082377,6957.935855,-74924.139704
20833.687185,7550.100608,7550.100608,-73698.386908
20833.689736,1480.411884,5625.565159,-74004.825107
20833.692287,3404.947333,12435.459826,-74464.482406
20833.694838,8438.347739,12583.501014,-75537.016103
20833.697388,5329.482782,11695.253884,-74004.825107
20833.699939,6069.688724,10807.006753,-74311.263306
20833.702490,7550.100608,10807.006753,-74924.139704
20833.705041,13619.789333,17320.819043,-73545.167808
20833.707592,-2220.617826,17172.777854,-73698.386908
20833.710143,7846.182985,4737.318029,-77528.864398
20833.712694,2960.823768,5921.647536,-73391.948708
20833.715245,-17320.819043,-296.082377,-76303.111601
20833.717795,2072.576638,-5329.482782,-77682.083497
20833.720346,-2072.576638,740.205942,-76303.111601
20833.722897,10658.965565,8142.265362,-74464.482406
20833.725448,-296.082377,7550.100608,-74924.139704
20833.727999,-296.082377,3701.029710,-75690.235202
20833.730551,-9326.594869,592.164754,-75077.358804
20833.733105,-6513.812290,3404.947333,-74617.701505
20833.735659,4589.276840,1776.494261,-76456.330700
20833.738213,7254.018232,4293.194464,-75843.454302
20833.740767,1184.329507,6957.935855,-74004.825107
20833.743321,-6957.935855,2220.617826,-75383.797003
20833.745875,-3997.112087,3849.070898,-75843.454302
20833.748429,-7105.977043,4885.359217,-75690.235202
20833.750983,5329.482782,7105.977043,-75230.577904
20833.753536,-2072.576638,1924.535449,-77835.302597
20833.756090,3552.988522,2812.782580,-76303.111601
20833.758644,-12435.459826,-5477.523971,-75230.577904
20833.761198,-5033.400406,-6957.935855,-75690.235202
20833.763752,8438.347739,2812.782580,-75996.673402
20833.766306,1776.494261,9178.553681,-75843.454302
20833.768860,-9326.594869,5921.647536,-75843.454302
20833.771414,16580.613101,592.164754,-75383.797003
20833.773968,5477.523971,13323.706956,-73545.167808
20833.776522,-16136.489536,12879.583391,-74770.920605
20833.779076,25463.084405,14211.954086,-74464.482406
20833.781630,12879.583391,15544.324782,-73698.386908
20833.784184,148.041188,12287.418637,-73545.167808
20833.786738,6809.894666,8586.388927,-73851.606007
20833.789292,-296.082377,5921.647536,-75537.016103
20833.791846,3552.988522,10066.800811,-74311.263306
20833.794400,2072.576638,8586.388927,-74924.139704
20833.796954,5625.565159,9326.594869,-75383.797003
20833.799508,12879.583391,9622.677246,-73238.729609
20833.802062,-5625.565159,5181.441594,-74770.920605
20833.804616,12583.501014,7402.059420,-74924.139704
20833.807170,-444.123565,8586.388927,-75383.797003
20833.809724,6513.812290,14359.995275,-75537.016103
20833.812278,8734.430116,13619.789333,-75690.235202
20833.814832,1628.453072,9326.594869,-75383.797003
20833.817386,14211.954086,13175.665768,-74770.920605
20833.819940,6957.935855,15100.201217,-73545.167808
20833.822494,3404.947333,17320.819043,-73545.167808
20833.825048,8142.265362,4441.235652,-76149.892501
20833.827602,888.247130,8734.430116,-73545.167808
20833.830156,-17172.777854,-4145.153275,-77222.426198
20833.832712,8882.471304,-5773.606348,-77069.207099
20833.835268,-3256.906145,0.000000,-77375.645298
20833.837824,12583.501014,9622.677246,-75383.797003
20833.840380,-2812.782580,8290.306550,-75843.454302
20833.842936,-1332.370696,3701.029710,-74311.263306
20833.845492,-10214.842000,444.123565,-74464.482406
20833.848048,-5181.441594,2072.576638,-75230.577904
20833.850604,1628.453072,3849.070898,-76915.987999
20833.853160,5477.523971,5329.482782,-76915.987999
20833.855716,4441.235652,7698.141797,-74464.482406
20833.858272,-7254.018232,2960.823768,-74617.701505
20833.860828,-1480.411884,3701.029710,-75843.454302
20833.863384,-9326.594869,2516.700203,-76609.549800
20833.865940,6069.688724,9474.636058,-74004.825107
20833.868496,-3701.029710,1924.535449,-77375.645298
20833.871052,1628.453072,-296.082377,-76456.330700
20833.873608,-13323.706956,-9622.677246,-75383.797003
20833.876164,0.000000,-5477.523971,-74464.482406
20833.878720,4293.194464,4293.194464,-76149.892501
20833.881276,1480.411884,11695.253884,-75690.235202
20833.883832,-13323.706956,5773.606348,-74924.139704
20833.886388,26203.290347,9918.759623,-72625.853210
20833.888944,-11991.336260,7994.224174,-75230.577904
20833.891500,10214.842000,11991.336260,-76303.111601
20833.894056,16876.695478,11843.295072,-75537.016103
20833.896612,12435.459826,16728.654289,-73391.948708
20833.899168,592.164754,11103.089130,-75230.577904
20833.901724,7105.977043,8290.306550,-74004.825107
20833.904280,-1332.370696,4589.276840,-74924.139704
20833.906836,3849.070898,9474.636058,-73698.386908
20833.909392,6365.771101,11547.212695,-76762.768900
20833.911948,11399.171507,11103.089130,-75690.235202
20833.914504,1332.370696,10510.924376,-74617.701505
20833.917060,8290.306550,2812.782580,-74311.263306
20833.919616,1628.453072,5477.523971,-74617.701505
20833.922172,6365.771101,11843.295072,-74924.139704
20833.924728,6217.729913,14359.995275,-75537.016103
20833.927284,3849.070898,12435.459826,-74924.139704
20833.929840,8882.471304,11251.130318,-75077.358804
20833.932396,9474.636058,14952.160028,-74158.044206
20833.934954,5329.482782,17912.983796,-74004.825107
20833.937511,-2516.700203,7698.141797,-76303.111601
20833.940069,10510.924376,8734.430116,-74924.139704
20833.942627,-13767.830521,1924.535449,-75996.673402
20833.945185,-888.247130,-8290.306550,-77682.083497
20833.947743,-7846.182985,-3849.070898,-75843.454302
20833.950301,11103.089130,7254.018232,-75383.797003
20833.952859,3256.906145,9178.553681,-76303.111601
20833.955416,740.205942,7105.977043,-75843.454302
20833.957974,-9030.512492,2072.576638,-75690.235202
20833.960532,-6513.812290,592.164754,-75230.577904
20833.963090,-592.164754,740.205942,-76609.549800
20833.965648,4145.153275,4145.153275,-76915.987999
20833.968206,7550.100608,9622.677246,-74464.482406
20833.970764,6661.853478,5181.441594,-74617.701505
20833.973321,-10658.965565,592.164754,-75996.673402
20833.975879,-1924.535449,2960.823768,-75230.577904
20833.978437,-2960.823768,2664.741391,-75690.235202
20833.980995,2812.782580,7698.141797,-76456.330700
20833.983553,-1332.370696,2072.576638,-77222.426198
20833.986111,-9474.636058,-5921.647536,-76303.111601
20833.988668,-2220.617826,-8290.306550,-74311.263306
20833.991226,3849.070898,3256.906145,-75230.577904
20833.993784,-444.123565,10955.047942,-76915.987999
20833.996342,-11991.336260,7254.018232,-75230.577904
20833.998900,26943.496289,8438.347739,-73391.948708
20834.001458,-12583.501014,9030.512492,-74617.701505
20834.004016,-3701.029710,10066.800811,-76303.111601
20834.006573,17912.983796,11103.089130,-74158.044206
20834.009131,9474.636058,17172.777854,-73545.167808
20834.011689,740.205942,14359.995275,-74924.139704
20834.014247,7846.182985,7994.224174,-74617.701505
20834.016805,-1924.535449,3849.070898,-75077.358804
20834.019363,-148.041188,9770.718434,-74158.044206
20834.021921,5033.400406,9622.677246,-77069.207099
20834.024478,9918.759623,11843.295072,-76149.892501
20834.027036,5033.400406,8290.306550,-74617.701505
20834.029594,3701.029710,4441.235652,-74464.482406
20834.032152,5033.400406,3849.070898,-74617.701505
20834.034710,1628.453072,10510.924376,-75230.577904
20834.037269,10658.965565,15692.365970,-75383.797003
20834.039829,5625.565159,11399.171507,-74617.701505
20834.042388,10362.883188,11843.295072,-74311.263306
20834.044948,9178.553681,14804.118840,-73851.606007
20834.047507,1480.411884,15692.365970,-73851.606007
20834.050067,1036.288319,7698.141797,-75383.797003
20834.052626,8586.388927,9474.636058,-75383.797003
20834.055186,-16876.695478,-1776.494261,-76915.987999
20834.057745,5477.523971,-6513.812290,-75690.235202
20834.060305,-8438.347739,-2960.823768,-75843.454302
20834.062864,12287.418637,6513.812290,-75230.577904
20834.065424,-888.247130,9178.553681,-75843.454302
20834.067983,888.247130,7105.977043,-75077.358804
20834.070543,-11103.089130,2368.659014,-75690.235202
20834.073102,-6809.894666,1184.329507,-74924.139704
20834.075662,888.247130,0.000000,-77069.207099
20834.078221,9622.677246,5625.565159,-76762.768900
20834.080781,-1480.411884,6957.935855,-76456.330700
20834.083340,2368.659014,4441.235652,-75383.797003
20834.085900,-9326.594869,148.041188,-75537.016103
20834.088459,-4293.194464,2368.659014,-74311.263306
20834.091019,-2664.741391,5329.482782,-75383.797003
20834.093578,1480.411884,6069.688724,-76456.330700
20834.096138,-5625.565159,-2072.576638,-77835.302597
20834.098697,-6661.853478,-9474.636058,-75996.673402
20834.101257,5181.441594,-4441.235652,-74004.825107
20834.103816,0.000000,5033.400406,-76456.330700
20834.106376,-7994.224174,9474.636058,-76915.987999
20834.108935,3997.112087,3404.947333,-75230.577904
20834.111495,19837.519246,16728.654289,-71859.757712
20834.114054,-14211.954086,10807.006753,-75383.797003
20834.116614,21762.054695,13619.789333,-74158.044206
20834.119173,9178.553681,15100.201217,-72779.072310
20834.121733,-1184.329507,15396.283594,-73391.948708
20834.124292,3849.070898,9474.636058,-75996.673402
20834.126852,5773.606348,7254.018232,-75230.577904
20834.129411,-888.247130,5921.647536,-74617.701505
20834.131971,-296.082377,8882.471304,-73698.386908
20834.134530,9918.759623,10362.883188,-75843.454302
20834.137090,4145.153275,7846.182985,-75996.673402
20834.139650,5033.400406,7402.059420,-74311.263306
20834.142210,3108.864956,5625.565159,-73085.510509
20834.144771,1924.535449,9030.512492,-74311.263306
20834.147331,11991.336260,13915.871710,-74311.263306
20834.149891,1184.329507,11103.089130,-74924.139704
20834.152452,14063.912898,15840.407159,-72779.072310
20834.155012,7994.224174,14359.995275,-75077.358804
20834.157572,5033.400406,17616.901420,-73238.729609
20834.160132,-2664.741391,6661.853478,-75077.358804
20834.162693,11399.171507,7994.224174,-74617.701505
20834.165253,-12879.583391,2812.782580,-76456.330700
20834.167813,4589.276840,-6513.812290,-76762.768900
20834.170373,-8882.471304,-3552.988522,-75690.235202
20834.172934,5773.606348,5625.565159,-75383.797003
20834.175494,5773.606348,9474.636058,-75230.577904
20834.178054,-2220.617826,6809.894666,-75996.673402
20834.180615,-6513.812290,4737.318029,-74924.139704
20834.183175,-7846.182985,-592.164754,-75230.577904
20834.185735,-444.123565,444.123565,-75537.016103
20834.188295,6217.729913,6069.688724,-76149.892501
20834.190856,0.000000,8290.306550,-75690.235202
20834.193416,0.000000,2960.823768,-76456.330700
20834.195976,-2516.700203,2664.741391,-75690.235202
20834.198536,-8882.471304,296.082377,-74464.482406
20834.201097,-296.082377,6513.812290,-74617.701505
20834.203657,-888.247130,5033.400406,-77528.864398
20834.206217,-2516.700203,592.164754,-77069.207099
20834.208778,-6513.812290,-8586.388927,-76303.111601
20834.211338,6365.771101,-3404.947333,-74311.263306
20834.213898,-3701.029710,3997.112087,-76149.892501
20834.216458,-8882.471304,6069.688724,-76456.330700
20834.219019,10658.965565,3404.947333,-74770.920605
20834.221579,11547.212695,17024.736666,-72319.415011
20834.224139,-8586.388927,14508.036463,-74004.825107
20834.226699,16136.489536,13175.665768,-73851.606007
20834.229260,17024.736666,12435.459826,-73391.948708
20834.231820,-2516.700203,14804.118840,-73545.167808
20834.234380,4737.318029,11547.212695,-76456.330700
20834.236941,6217.729913,7402.059420,-75996.673402
20834.239501,0.000000,7254.018232,-75383.797003
20834.242062,5181.441594,6513.812290,-75077.358804
20834.244623,1628.453072,5181.441594,-79061.055394
20834.247184,9178.553681,13619.789333,-75996.673402
20834.249745,4737.318029,6957.935855,-74464.482406
20834.252306,-1628.453072,5625.565159,-73698.386908
20834.254867,9474.636058,11399.171507,-75537.016103
20834.257428,4441.235652,12287.418637,-75537.016103
20834.259989,8438.347739,15692.365970,-74464.482406
20834.262550,8734.430116,14359.995275,-73391.948708
20834.265111,11251.130318,15692.365970,-74617.701505
20834.267672,740.205942,14359.995275,-74004.825107
20834.270233,-444.123565,5773.606348,-75537.016103
20834.272794,7254.018232,7994.224174,-74617.701505
20834.275355,-17172.777854,-2812.782580,-77528.864398
20834.277916,7254.018232,-4293.194464,-75690.235202
20834.280477,-6661.853478,-3849.070898,-75230.577904
20834.283038,11103.089130,5329.482782,-75230.577904
20834.285599,-2072.576638,8586.388927,-75383.797003
20834.288160,148.041188,6513.812290,-74158.044206
20834.290722,-12139.377449,2960.823768,-74924.139704
20834.293283,-4737.318029,1480.411884,-75077.358804
20834.295844,1480.411884,296.082377,-77069.207099
20834.298405,6069.688724,3701.029710,-77988.521696
20834.300966,4293.194464,9622.677246,-76456.330700
20834.303527,-4441.235652,3256.906145,-76609.549800
20834.306088,-4441.235652,2220.617826,-76303.111601
20834.308649,-6513.812290,2812.782580,-75537.016103
20834.311210,-1332.370696,3849.070898,-76303.111601
20834.313771,-888.247130,4885.359217,-76762.768900
20834.316332,-8734.430116,-6217.729913,-77835.302597
20834.318893,6661.853478,-7550.100608,-75383.797003
20834.321454,-1184.329507,444.123565,-74004.825107
20834.324015,-3256.906145,7550.100608,-74617.701505
20834.326576,-11991.336260,3256.906145,-76456.330700
20834.329137,23390.507767,9622.677246,-73851.606007
20834.331698,-7698.141797,11695.253884,-74004.825107
20834.334259,16728.654289,10955.047942,-76915.987999
20834.336820,14211.954086,8438.347739,-74617.701505
20834.339381,7698.141797,14656.077652,-72625.853210
20834.341942,592.164754,11695.253884,-75383.797003
20834.344504,9622.677246,10510.924376,-76456.330700
20834.347066,1924.535449,7402.059420,-75537.016103
20834.349628,6069.688724,8142.265362,-73391.948708
20834.352190,2664.741391,5921.647536,-74617.701505
20834.354751,4737.318029,8290.306550,-75690.235202
20834.357313,3849.070898,9178.553681,-75690.235202
20834.359875,3849.070898,6513.812290,-74158.044206
20834.362437,3108.864956,8142.265362,-74770.920605
20834.364999,9030.512492,12879.583391,-75230.577904
20834.367561,3404.947333,12731.542202,-75383.797003
20834.370122,11695.253884,15544.324782,-73545.167808
20834.372684,8586.388927,16432.571912,-74004.825107
20834.375246,8586.388927,16876.695478,-74004.825107
20834.377808,296.082377,6661.853478,-74924.139704
20834.380370,7550.100608,7105.977043,-74617.701505
20834.382932,-12731.542202,3404.947333,-77069.207099
20834.385493,-888.247130,-6069.688724,-77988.521696
20834.388055,-6365.771101,-4145.153275,-75383.797003
20834.390617,4145.153275,2960.823768,-75996.673402
20834.393179,5477.523971,8142.265362,-75383.797003
20834.395741,-3552.988522,7846.182985,-75077.358804
20834.398303,-8882.471304,4293.194464,-74924.139704
20834.400865,-9326.594869,148.041188,-75230.577904
20834.403426,-296.082377,296.082377,-76915.987999
20834.405988,8290.306550,4293.194464,-77988.521696
20834.408550,-2812.782580,6069.688724,-76762.768900
20834.411112,5033.400406,7994.224174,-75843.454302
20834.413674,-8438.347739,444.123565,-75996.673402
20834.416236,-7254.018232,3701.029710,-75383.797003
20834.418797,1036.288319,4293.194464,-74617.701505
20834.421359,-2220.617826,3552.988522,-76456.330700
20834.423921,-5033.400406,-4737.318029,-77222.426198
20834.426483,3849.070898,-7698.141797,-74464.482406
20834.429045,2664.741391,0.000000,-74464.482406
20834.431607,-5477.523971,6217.729913,-74617.701505
20834.434168,-10658.965565,4441.235652,-76456.330700
20834.436730,19985.560434,7994.224174,-74770.920605
20834.439292,-10658.965565,13175.665768,-74617.701505
20834.441854,13323.706956,10807.006753,-77222.426198
20834.444416,13175.665768,7698.141797,-75383.797003
20834.446949,10362.883188,14508.036463,-72319.415011
20834.449483,-2368.659014,11695.253884,-75690.235202
20834.452017,11399.171507,12139.377449,-75537.016103
20834.454550,148.041188,7994.224174,-75230.577904
20834.457084,5181.441594,9770.718434,-74004.825107
20834.459618,1332.370696,9770.718434,-73238.729609
20834.462151,4737.318029,6069.688724,-74617.701505
20834.464685,6365.771101,9770.718434,-74617.701505
20834.467218,4885.359217,7254.018232,-72166.195912
20834.469752,4885.359217,7994.224174,-73851.606007
20834.472286,11103.089130,12731.542202,-74770.920605
20834.474819,5329.482782,11695.253884,-75230.577904
20834.477353,10807.006753,17764.942608,-72472.634111
20834.479887,9474.636058,16284.530724,-75230.577904
20834.482420,-1332.370696,14508.036463,-74924.139704
20834.484954,4737.318029,5329.482782,-75077.358804
20834.487487,8290.306550,9326.594869,-73085.510509
20834.490021,-20429.683999,-1480.411884,-77835.302597
20834.492555,5921.647536,-6217.729913,-76456.330700
20834.495088,-6661.853478,-3701.029710,-74770.920605
20834.497622,5773.606348,4441.235652,-75843.454302
20834.500155,-3256.906145,8290.306550,-76456.330700
20834.502689,-1480.411884,7402.059420,-74311.263306
20834.505223,-10658.965565,3701.029710,-74004.825107
20834.507756,-8142.265362,296.082377,-75690.235202
20834.510290,2664.741391,-1036.288319,-77682.083497
20834.512824,3997.112087,3404.947333,-77222.426198
20834.515357,2368.659014,9918.759623,-75230.577904
20834.517891,1332.370696,4885.359217,-75383.797003
20834.520424,-7846.182985,1924.535449,-75843.454302
20834.522958,-6217.729913,3108.864956,-75077.358804
20834.525492,-592.164754,3404.947333,-76609.549800
20834.528025,-5181.441594,592.164754,-76456.330700
20834.530559,-740.205942,-7254.018232,-77682.083497
20834.533093,6513.812290,-4441.235652,-75996.673402
20834.535626,-3849.070898,1924.535449,-74924.139704
20834.538160,-10066.800811,3404.947333,-76762.768900
20834.540693,888.247130,0.000000,-77375.645298
20834.543227,11251.130318,19837.519246,-71553.319513
20834.545761,-4885.359217,17024.736666,-74770.920605
20834.548300,21021.848753,14804.118840,-74464.482406
20834.550840,8882.471304,11103.089130,-73391.948708
20834.553380,3108.864956,14508.036463,-72012.976812
20834.555920,0.000000,8882.471304,-76149.892501
20834.558460,5477.523971,7846.182985,-75996.673402
20834.560999,3997.112087,8142.265362,-75690.235202
20834.563539,2516.700203,8438.347739,-75077.358804
20834.566079,7402.059420,6661.853478,-76149.892501
20834.568619,1036.288319,7846.182985,-77069.207099
20834.571158,9474.636058,9622.677246,-74770.920605
20834.573698,1924.535449,7105.977043,-73851.606007
20834.576238,9474.636058,11695.253884,-75383.797003
20834.578778,8882.471304,13767.830521,-75230.577904
20834.581317,4885.359217,15100.201217,-72932.291410
20834.583857,12879.583391,19541.436869,-72166.195912
20834.586397,1776.494261,15988.448347,-74158.044206
20834.588937,1776.494261,9326.594869,-74617.701505
20834.591477,5477.523971,6513.812290,-74004.825107
20834.594016,-15692.365970,2368.659014,-75996.673402
20834.596556,1036.288319,-6957.935855,-77988.521696
20834.599096,-6513.812290,-2664.741391,-74464.482406
20834.601636,1332.370696,4145.153275,-74924.139704
20834.604175,6513.812290,6957.935855,-76762.768900
20834.606715,-2220.617826,6957.935855,-75996.673402
20834.609255,-5181.441594,6365.771101,-73851.606007
20834.611795,-9770.718434,-148.041188,-75690.235202
20834.614334,-2072.576638,-592.164754,-75996.673402
20834.616874,5033.400406,2664.741391,-75843.454302
20834.619414,3849.070898,8290.306550,-74617.701505
20834.621954,-5477.523971,4737.318029,-75537.016103
20834.624494,-1036.288319,1924.535449,-75230.577904
20834.627033,-11399.171507,592.164754,-75230.577904
20834.629573,-592.164754,2960.823768,-76609.549800
20834.632113,-4885.359217,1776.494261,-77988.521696
20834.634653,1332.370696,-5181.441594,-77835.302597
20834.637192,12139.377449,-1036.288319,-75077.358804
20834.639732,-8586.388927,1924.535449,-73698.386908
20834.642272,-9326.594869,3701.029710,-76456.330700
20834.644812,2072.576638,-1184.329507,-77069.207099
20834.647351,18209.066173,21762.054695,-72779.072310
20834.649897,-7105.977043,17320.819043,-74924.139704
20834.652442,28275.866984,16876.695478,-75537.016103
20834.654987,2516.700203,11547.212695,-72012.976812
20834.657532,296.082377,14063.912898,-71706.538613
20834.660078,1776.494261,9918.759623,-76149.892501
20834.662623,4737.318029,7402.059420,-77222.426198
20834.665168,5329.482782,8290.306550,-76303.111601
20834.667713,5477.523971,6069.688724,-73545.167808
20834.670259,1924.535449,7254.018232,-75690.235202
20834.672804,9622.677246,9918.759623,-74770.920605
20834.675349,1036.288319,7994.224174,-73545.167808
20834.677894,4885.359217,10658.965565,-72932.291410
20834.680439,5181.441594,12583.501014,-75077.358804
20834.682985,8290.306550,11991.336260,-75077.358804
20834.685530,13323.706956,16876.695478,-72932.291410
20834.688075,8142.265362,17172.777854,-73698.386908
20834.690620,5181.441594,17468.860231,-74464.482406
20834.693166,-1924.535449,7105.977043,-75077.358804
20834.695711,12583.501014,9030.512492,-74158.044206
20834.698256,-23982.672521,-3849.070898,-78601.398095
20834.700801,9622.677246,-6661.853478,-77375.645298
20834.703347,-9622.677246,-4589.276840,-74311.263306
20834.705892,8734.430116,7402.059420,-73851.606007
20834.708437,-1628.453072,6809.894666,-77069.207099
20834.710982,3256.906145,9326.594869,-75230.577904
20834.713527,-9474.636058,4737.318029,-74158.044206
20834.716073,-7994.224174,-148.041188,-74924.139704
20834.718618,1776.494261,-740.205942,-77835.302597
20834.721163,3552.988522,2516.700203,-76915.987999
20834.723708,5477.523971,7105.977043,-75230.577904
20834.726254,-3256.906145,5033.400406,-75230.577904
20834.728799,-7402.059420,1184.329507,-75996.673402
20834.731344,-7550.100608,2812.782580,-74004.825107
20834.733889,-2516.700203,3552.988522,-75230.577904
20834.736435,-6957.935855,-2516.700203,-78294.959896
20834.738980,6217.729913,-5033.400406,-77375.645298
20834.741525,3256.906145,148.041188,-74617.701505
20834.744070,-5329.482782,3404.947333,-74770.920605
20834.746615,-13027.624579,1480.411884,-76609.549800
20834.749161,17616.901420,4441.235652,-75383.797003
20834.751707,592.164754,18061.024985,-72779.072310
20834.754257,3701.029710,13915.871710,-75537.016103
20834.756806,17764.942608,12879.583391,-74770.920605
20834.759355,4441.235652,13027.624579,-72166.195912
20834.761904,-2072.576638,11695.253884,-73545.167808
20834.764453,9918.759623,11251.130318,-75383.797003
20834.767002,2220.617826,9622.677246,-76303.111601
20834.769552,7550.100608,8586.388927,-74464.482406
20834.772101,3849.070898,8586.388927,-73851.606007
20834.774650,2072.576638,4737.318029,-75077.358804
20834.777199,9918.759623,7698.141797,-74770.920605
20834.779748,5477.523971,9622.677246,-75230.577904
20834.782298,6809.894666,10066.800811,-75690.235202
20834.784847,6809.894666,12287.418637,-76762.768900
20834.787396,9622.677246,13471.748144,-75230.577904
20834.789945,12583.501014,18801.230927,-72779.072310
20834.792494,4441.235652,17764.942608,-73545.167808
20834.795044,-444.123565,12139.377449,-76303.111601
20834.797593,5773.606348,7105.977043,-74311.263306
20834.800142,-7698.141797,5329.482782,-75383.797003
20834.802691,-3849.070898,-8290.306550,-79980.369991
20834.805240,-1480.411884,-7402.059420,-76456.330700
20834.807790,-2516.700203,-296.082377,-74004.825107
20834.810339,7846.182985,5921.647536,-76303.111601
20834.812888,-5181.441594,8882.471304,-76915.987999
20834.815437,-4737.318029,7105.977043,-74924.139704
20834.817986,-8734.430116,2960.823768,-74158.044206
20834.820536,2220.617826,-148.041188,-77222.426198
20834.823085,-592.164754,-2072.576638,-79367.493593
20834.825634,9178.553681,9622.677246,-75537.016103
20834.828183,-1332.370696,6513.812290,-74924.139704
20834.830732,-5033.400406,2072.576638,-75690.235202
20834.833285,-9030.512492,1776.494261,-75077.358804
20834.835838,-8882.471304,1924.535449,-74617.701505
20834.838390,-888.247130,888.247130,-78141.740796
20834.840943,-2072.576638,-7402.059420,-78294.959896
20834.843496,17024.736666,592.164754,-75383.797003
20834.846048,-6957.935855,2220.617826,-74004.825107
20834.848601,-11399.171507,3997.112087,-75077.358804
20834.851154,6809.894666,-2072.576638,-76609.549800
20834.853706,12879.583391,22798.343014,-72779.072310
20834.856259,-1184.329507,17912.983796,-75077.358804
20834.858812,30200.402434,17024.736666,-74924.139704
20834.861364,5033.400406,13175.665768,-72166.195912
20834.863917,-5625.565159,12435.459826,-71859.757712
20834.866470,8438.347739,10807.006753,-75843.454302
20834.869022,1924.535449,8290.306550,-76915.987999
20834.871575,9918.759623,10066.800811,-76456.330700
20834.874128,7402.059420,4589.276840,-75690.235202
20834.876680,3701.029710,4885.359217,-75996.673402
20834.879233,7105.977043,8142.265362,-74617.701505
20834.881786,3552.988522,7105.977043,-75690.235202
20834.884338,6069.688724,12435.459826,-74158.044206
20834.886891,8142.265362,12879.583391,-76149.892501
20834.889444,8142.265362,13619.789333,-74924.139704
20834.891996,15396.283594,18357.107362,-72472.634111
20834.894549,4737.318029,19097.313304,-72625.853210
20834.897102,592.164754,11399.171507,-74924.139704
20834.899654,3552.988522,7402.059420,-74617.701505
20834.902207,888.247130,9178.553681,-74617.701505
20834.904760,-4441.235652,-8882.471304,-79980.369991
20834.907312,-1776.494261,-6513.812290,-76149.892501
20834.909865,-3849.070898,-740.205942,-73545.167808
20834.912418,7846.182985,6513.812290,-74924.139704
20834.914970,-5625.565159,8142.265362,-76915.987999
20834.917523,-3256.906145,8142.265362,-74770.920605
20834.920076,-10658.965565,3849.070898,-74004.825107
20834.922628,-1184.329507,1628.453072,-75996.673402
20834.925181,2812.782580,3701.029710,-76609.549800
20834.927734,2812.782580,4441.235652,-75537.016103
20834.930286,-1776.494261,7550.100608,-75230.577904
20834.932839,-2072.576638,1332.370696,-77069.207099
20834.935395,-10362.883188,-296.082377,-75843.454302
20834.937951,-4589.276840,4885.359217,-74617.701505
20834.940507,-5773.606348,-2072.576638,-77988.521696
20834.943063,3404.947333,-3997.112087,-78141.740796
20834.945618,4589.276840,-148.041188,-74617.701505
20834.948174,-4145.153275,1184.329507,-72779.072310
20834.950730,-9622.677246,148.041188,-75843.454302
20834.953286,11399.171507,3997.112087,-74770.920605
20834.955842,3256.906145,19689.478057,-74004.825107
20834.958398,6957.935855,16284.530724,-75843.454302
20834.960954,20429.683999,14211.954086,-74617.701505
20834.963510,5181.441594,10807.006753,-72779.072310
20834.966066,-6365.771101,9326.594869,-72779.072310
20834.968622,8882.471304,11991.336260,-75537.016103
20834.971177,592.164754,9918.759623,-76456.330700
20834.973733,8290.306550,10066.800811,-76609.549800
20834.976289,4293.194464,7550.100608,-75843.454302
20834.978845,6661.853478,2812.782580,-75537.016103
20834.981401,4145.153275,7105.977043,-74464.482406
20834.983957,7105.977043,9918.759623,-74464.482406
20834.986513,2664.741391,12287.418637,-74617.701505
20834.989069,9178.553681,16136.489536,-75077.358804
20834.991625,12731.542202,14656.077652,-74311.263306
20834.994181,11251.130318,17468.860231,-72625.853210
20834.996736,-444.123565,13323.706956,-75996.673402
20834.999292,2664.741391,5921.647536,-75537.016103
20835.001848,9326.594869,13175.665768,-73085.510509
20835.004404,-25907.207970,-2220.617826,-77682.083497
20835.006960,14952.160028,-7105.977043,-77988.521696
20835.009516,-13027.624579,-8142.265362,-75383.797003
20835.012072,14063.912898,6365.771101,-73545.167808
20835.014628,-7105.977043,6069.688724,-76915.987999
20835.017184,-1332.370696,8438.347739,-74924.139704
20835.019739,-7994.224174,6069.688724,-74004.825107
20835.022295,-10066.800811,592.164754,-74464.482406
20835.024851,1332.370696,1776.494261,-77222.426198
20835.027407,8290.306550,4293.194464,-76609.549800
20835.029963,2220.617826,6809.894666,-75690.235202
20835.032519,-2072.576638,2516.700203,-76456.330700
20835.035075,-5329.482782,-2368.659014,-77222.426198
20835.037633,-9770.718434,1036.288319,-74464.482406
20835.040191,-2812.782580,740.205942,-76149.892501
20835.042748,-592.164754,-4441.235652,-78448.178995
20835.045306,15988.448347,1332.370696,-76915.987999
20835.047864,-5329.482782,148.041188,-74311.263306
20835.050422,-8290.306550,444.123565,-75230.577904
20835.052980,-5329.482782,-6217.729913,-77375.645298
20835.055538,15248.242405,22354.219448,-72779.072310
20835.058095,148.041188,18801.230927,-75690.235202
20835.060653,31088.649564,18061.024985,-74158.044206
20835.063211,5181.441594,10214.842000,-74158.044206
20835.065769,-1332.370696,9178.553681,-71706.538613
20835.068327,3849.070898,7105.977043,-75383.797003
20835.070885,0.000000,8290.306550,-77069.207099
20835.073443,8734.430116,12731.542202,-78448.178995
20835.076000,6661.853478,4589.276840,-75230.577904
20835.078558,740.205942,5625.565159,-74464.482406
20835.081116,9178.553681,7846.182985,-74004.825107
20835.083674,1480.411884,6957.935855,-74617.701505
20835.086232,4293.194464,16136.489536,-73698.386908
20835.088790,9770.718434,14656.077652,-75996.673402
20835.091347,11695.253884,15396.283594,-74617.701505
20835.093905,11991.336260,17024.736666,-72625.853210
20835.096463,296.082377,15544.324782,-72166.195912
20835.099021,10214.842000,8438.347739,-74924.139704
20835.101579,1776.494261,11991.336260,-73085.510509
20835.104137,-15988.448347,4885.359217,-75690.235202
20835.106694,5773.606348,-8290.306550,-78141.740796
20835.109252,-8290.306550,-7105.977043,-75843.454302
20835.111810,6809.894666,1924.535449,-73085.510509
20835.114368,888.247130,7402.059420,-76149.892501
20835.116926,592.164754,9030.512492,-76456.330700
20835.119484,-10955.047942,6217.729913,-74311.263306
20835.122042,-6513.812290,1036.288319,-74924.139704
20835.124599,4737.318029,-2664.741391,-77528.864398
20835.127157,-5033.400406,1332.370696,-77222.426198
20835.129715,11695.253884,12287.418637,-73545.167808
20835.132273,-6513.812290,2368.659014,-74464.482406
20835.134831,-3701.029710,2516.700203,-75383.797003
20835.137389,-13471.748144,-2368.659014,-75383.797003
20835.139948,-6365.771101,-1776.494261,-76456.330700
20835.142508,3849.070898,-2220.617826,-78141.740796
20835.145068,13915.871710,888.247130,-75843.454302
20835.147628,-1628.453072,1628.453072,-75230.577904
20835.150188,-13767.830521,-1776.494261,-74004.825107
20835.152747,740.205942,-4885.359217,-76762.768900
20835.155307,5773.606348,18801.230927,-72932.291410
20835.157867,-2664.741391,21910.095883,-74311.263306
20835.160427,28275.866984,20577.725188,-74464.482406
20835.162987,7846.182985,11991.336260,-72625.853210
20835.165547,-888.247130,9326.594869,-72166.195912
20835.168106,-1332.370696,5921.647536,-75383.797003
20835.170666,5477.523971,8142.265362,-76456.330700
20835.173226,4885.359217,11103.089130,-77222.426198
20835.175786,5181.441594,10955.047942,-73391.948708
20835.178346,5329.482782,3404.947333,-74770.920605
20835.180905,4885.359217,5329.482782,-73698.386908
20835.183465,4589.276840,10066.800811,-74311.263306
20835.186025,3701.029710,14211.954086,-75383.797003
20835.188585,8882.471304,18061.024985,-75690.235202
20835.191145,14656.077652,17172.777854,-75230.577904
20835.193704,12139.377449,17172.777854,-72319.415011
20835.196264,-4589.276840,12435.459826,-72166.195912
20835.198824,4589.276840,6661.853478,-75690.235202
20835.201384,9030.512492,14211.954086,-73391.948708
20835.203944,-20133.601622,-1332.370696,-78294.959896
20835.206504,13471.748144,-6957.935855,-79061.055394
20835.209063,-9918.759623,-9474.636058,-76915.987999
20835.211623,12583.501014,3849.070898,-73391.948708
20835.214183,-5921.647536,7254.018232,-76303.111601
20835.216743,2812.782580,8586.388927,-76303.111601
20835.219303,-8290.306550,6957.935855,-75077.358804
20835.221862,-12731.542202,2812.782580,-73391.948708
20835.224422,444.123565,-444.123565,-77528.864398
20835.226982,6957.935855,6513.812290,-75690.235202
20835.229542,3552.988522,8142.265362,-74770.920605
20835.232102,-3701.029710,2516.700203,-74924.139704
20835.234662,-6513.812290,-592.164754,-76303.111601
20835.237221,-14804.118840,-1480.411884,-75383.797003
20835.239781,-3404.947333,-1480.411884,-76303.111601
20835.242314,2664.741391,-2812.782580,-77682.083497
20835.244846,2220.617826,1776.494261,-76149.892501
20835.247379,148.041188,-148.041188,-75230.577904
20835.249911,-17172.777854,-5773.606348,-76456.330700
20835.252444,19393.395680,4885.359217,-74464.482406
20835.254976,-8734.430116,16284.530724,-74464.482406
20835.257509,13619.789333,20429.683999,-75843.454302
20835.260041,24426.796086,16580.613101,-74464.482406
20835.262574,5033.400406,13619.789333,-72166.195912
20835.265106,-5033.400406,6365.771101,-74158.044206
20835.267639,7846.182985,6217.729913,-74617.701505
20835.270171,888.247130,9918.759623,-76303.111601
20835.272704,5921.647536,11251.130318,-75230.577904
20835.275236,11251.130318,8438.347739,-74770.920605
20835.277769,1776.494261,2812.782580,-74617.701505
20835.280301,9918.759623,6365.771101,-74004.825107
20835.282834,888.247130,10214.842000,-73545.167808
20835.285366,7994.224174,16284.530724,-74617.701505
20835.287899,10362.883188,19689.478057,-76915.987999
20835.290431,14211.954086,18357.107362,-74158.044206
20835.292964,6069.688724,15544.324782,-73085.510509
20835.295496,-1776.494261,6809.894666,-75077.358804
20835.298029,9770.718434,9326.594869,-75077.358804
20835.300561,-11251.130318,9622.677246,-75230.577904
20835.303094,-3108.864956,-4145.153275,-79214.274493
20835.305626,-1480.411884,-7402.059420,-77835.302597
20835.308159,1628.453072,-296.082377,-74464.482406
20835.310691,2072.576638,5625.565159,-74158.044206
20835.313224,888.247130,8586.388927,-76609.549800
20835.315756,-5625.565159,8142.265362,-75230.577904
20835.318289,-10066.800811,4737.318029,-73698.386908
20835.320821,148.041188,-1776.494261,-75843.454302
20835.323354,-3404.947333,1628.453072,-76456.330700
20835.325886,7994.224174,11103.089130,-75383.797003
20835.328419,-5181.441594,4589.276840,-74311.263306
20835.330951,-2960.823768,1924.535449,-74770.920605
20835.333484,-14359.995275,-1480.411884,-75537.016103
20835.336016,-5181.441594,-1924.535449,-75690.235202
20835.338549,148.041188,-3404.947333,-77069.207099
20835.341081,14063.912898,2812.782580,-76609.549800
20835.343620,-2664.741391,2664.741391,-75843.454302
20835.346159,-8734.430116,-888.247130,-73545.167808
20835.348698,11399.171507,-888.247130,-74924.139704
20835.351238,-3404.947333,17024.736666,-74924.139704
20835.353777,6513.812290,19985.560434,-75230.577904
20835.356316,27979.784608,18209.066173,-74311.263306
20835.358855,7698.141797,13915.871710,-72779.072310
20835.361394,-1924.535449,8290.306550,-72625.853210
20835.363933,888.247130,3552.988522,-74770.920605
20835.366472,1924.535449,8142.265362,-75383.797003
20835.369011,9030.512492,12879.583391,-76762.768900
20835.371551,2220.617826,6957.935855,-76149.892501
20835.374090,8586.388927,5921.647536,-73851.606007
20835.376629,5773.606348,4145.153275,-74004.825107
20835.379168,-1036.288319,9474.636058,-74158.044206
20835.381707,10510.924376,15544.324782,-73545.167808
20835.384246,4737.318029,17616.901420,-75996.673402
20835.386785,20281.642811,20133.601622,-75077.358804
20835.389324,-296.082377,14211.954086,-72319.415011
20835.391864,888.247130,6809.894666,-74004.825107
20835.394403,9474.636058,8734.430116,-74464.482406
20835.396942,-12139.377449,10955.047942,-75077.358804
20835.399481,-148.041188,-2812.782580,-78448.178995
20835.402020,-10362.883188,-6809.894666,-76149.892501
20835.404559,5181.441594,888.247130,-74311.263306
20835.407098,-740.205942,4737.318029,-74004.825107
20835.409637,3701.029710,9770.718434,-75690.235202
20835.412177,-7994.224174,7698.141797,-75383.797003
20835.414716,-10658.965565,5625.565159,-74617.701505
20835.417255,-1480.411884,-296.082377,-76609.549800
20835.419794,7994.224174,3108.864956,-75537.016103
20835.422333,296.082377,7994.224174,-72932.291410
20835.424872,-3404.947333,3849.070898,-74464.482406
20835.427411,-148.041188,296.082377,-75383.797003
20835.429950,-17468.860231,-3256.906145,-74770.920605
20835.432489,-3404.947333,-1924.535449,-75690.235202
20835.435029,1480.411884,-3849.070898,-77528.864398
20835.437568,12879.583391,4293.194464,-75843.454302
20835.440107,-740.205942,592.164754,-75537.016103
20835.442646,-13767.830521,-5773.606348,-75996.673402
20835.445191,19245.354492,4885.359217,-75077.358804
20835.447736,-12583.501014,14952.160028,-75230.577904
20835.450281,16580.613101,19245.354492,-76609.549800
20835.452826,23094.425390,17764.942608,-74004.825107
20835.455371,3552.988522,14359.995275,-72932.291410
20835.457915,-3552.988522,6513.812290,-73851.606007
20835.460460,4145.153275,5033.400406,-74464.482406
20835.463005,2960.823768,9178.553681,-77222.426198
20835.465550,6217.729913,10510.924376,-77835.302597
20835.468095,8586.388927,10066.800811,-76149.892501
20835.470640,7550.100608,3997.112087,-74158.044206
20835.473185,5773.606348,4589.276840,-74464.482406
20835.475730,-1628.453072,10214.842000,-73545.167808
20835.478275,9178.553681,17616.901420,-74004.825107
20835.480820,13915.871710,22502.260637,-75537.016103
20835.483365,13027.624579,20281.642811,-73545.167808
20835.485910,-2812.782580,10214.842000,-73085.510509
20835.488455,5773.606348,4441.235652,-73391.948708
20835.490999,6217.729913,12287.418637,-73085.510509
20835.493544,-21910.095883,3701.029710,-77682.083497
20835.496089,9918.759623,-2220.617826,-77682.083497
20835.498634,-7402.059420,-7105.977043,-76915.987999
20835.501179,10510.924376,444.123565,-74770.920605
20835.503724,-6957.935855,5625.565159,-75077.358804
20835.506269,2072.576638,8586.388927,-75690.235202
20835.508814,-7846.182985,7254.018232,-75690.235202
20835.511359,-11399.171507,3552.988522,-74004.825107
20835.513904,4293.194464,2368.659014,-73851.606007
20835.516449,1332.370696,-592.164754,-76609.549800
20835.518994,3108.864956,6217.729913,-75383.797003
20835.521539,-2220.617826,3701.029710,-75383.797003
20835.524083,-10214.842000,-3256.906145,-77222.426198
20835.526628,-9474.636058,-2960.823768,-76303.111601
20835.529173,-8734.430116,-4737.318029,-76762.768900
20835.531718,18209.066173,3108.864956,-76762.768900
20835.534263,-4145.153275,2812.782580,-75383.797003
20835.536808,-3849.070898,-1332.370696,-75690.235202
20835.539353,-2664.741391,-8882.471304,-76609.549800
20835.541898,9622.677246,14211.954086,-72932.291410
20835.544443,-8142.265362,18357.107362,-75537.016103
20835.546992,32865.143825,20429.683999,-73851.606007
20835.549542,10214.842000,15988.448347,-74158.044206
20835.552091,-592.164754,11103.089130,-73085.510509
20835.554641,296.082377,2368.659014,-74617.701505
20835.557190,2664.741391,4589.276840,-75383.797003
20835.559740,4145.153275,11251.130318,-76762.768900
20835.562289,4145.153275,11695.253884,-76762.768900
20835.564839,6217.729913,7846.182985,-74464.482406
20835.567388,8734.430116,3997.112087,-73545.167808
20835.569938,-1776.494261,5773.606348,-73391.948708
20835.572488,8882.471304,15248.242405,-74464.482406
20835.575037,9030.512492,19689.478057,-75230.577904
20835.577587,16284.530724,23538.548956,-74464.482406
20835.580136,5477.523971,16728.654289,-74004.825107
20835.582686,-296.082377,8290.306550,-72779.072310
20835.585235,10066.800811,9474.636058,-73238.729609
20835.587785,-18505.148550,8142.265362,-75996.673402
20835.590334,4441.235652,-1184.329507,-78141.740796
20835.592884,-9326.594869,-3701.029710,-75383.797003
20835.595433,2516.700203,-1776.494261,-75383.797003
20835.597983,3849.070898,3997.112087,-74004.825107
20835.600532,-3404.947333,9622.677246,-75843.454302
20835.603082,-1776.494261,7105.977043,-75996.673402
20835.605631,-8882.471304,3701.029710,-75537.016103
20835.608181,-3108.864956,-1036.288319,-76456.330700
20835.610730,6365.771101,2516.700203,-75537.016103
20835.613280,2368.659014,7550.100608,-73698.386908
20835.615829,-2812.782580,5625.565159,-73545.167808
20835.618379,-2220.617826,1628.453072,-75230.577904
20835.620928,-17172.777854,-3849.070898,-75383.797003
20835.623478,-5181.441594,-2960.823768,-75843.454302
20835.626027,10658.965565,888.247130,-77069.207099
20835.628577,-1924.535449,2072.576638,-76149.892501
20835.631126,-2664.741391,-1776.494261,-75843.454302
20835.633676,-5921.647536,-8734.430116,-76149.892501
20835.636225,12879.583391,10807.006753,-73391.948708
20835.638775,-16432.571912,14359.995275,-75843.454302
20835.641325,30644.525999,22650.301825,-75690.235202
20835.643874,13471.748144,16136.489536,-73851.606007
20835.646424,-296.082377,11547.212695,-72166.195912
20835.648977,1628.453072,2368.659014,-74617.701505
20835.651530,3256.906145,3404.947333,-75383.797003
20835.654084,1184.329507,13619.789333,-75690.235202
20835.656637,9770.718434,11843.295072,-75843.454302
20835.659191,3849.070898,8586.388927,-75383.797003
20835.661744,10214.842000,4441.235652,-72625.853210
20835.664297,-1184.329507,2664.741391,-73851.606007
20835.666851,8734.430116,15100.201217,-74311.263306
20835.669404,12583.501014,19985.560434,-75843.454302
20835.671957,12139.377449,23538.548956,-74311.263306
20835.674511,5921.647536,17468.860231,-74158.044206
20835.677064,1036.288319,5921.647536,-73085.510509
20835.679618,5921.647536,5625.565159,-73851.606007
20835.682171,-9030.512492,9326.594869,-74924.139704
20835.684724,-4293.194464,-888.247130,-78294.959896
20835.687278,-4145.153275,-4589.276840,-75996.673402
20835.689831,7254.018232,592.164754,-75230.577904
20835.692385,1924.535449,4589.276840,-74311.263306
20835.694938,-1924.535449,9474.636058,-74770.920605
20835.697491,-2072.576638,7402.059420,-75537.016103
20835.700045,-12435.459826,7105.977043,-75077.358804
20835.702598,2368.659014,3552.988522,-75996.673402
20835.705151,-4885.359217,-2516.700203,-77988.521696
20835.707705,9326.594869,9918.759623,-74464.482406
20835.710258,-888.247130,4441.235652,-75843.454302
20835.712812,-5033.400406,148.041188,-75383.797003
20835.715365,-11251.130318,-2960.823768,-75230.577904
20835.717918,-10807.006753,-2812.782580,-75843.454302
20835.720472,14804.118840,1332.370696,-76915.987999
20835.723025,-4145.153275,1776.494261,-76915.987999
20835.725579,-4885.359217,-1628.453072,-77222.426198
20835.728132,-1628.453072,-8142.265362,-76762.768900
20835.730685,5477.523971,14656.077652,-72472.634111
20835.733239,-14063.912898,17172.777854,-75690.235202
20835.735792,33901.432144,22058.137072,-74617.701505
20835.738346,11843.295072,17024.736666,-73391.948708
20835.740899,-888.247130,12435.459826,-73085.510509
20835.743452,888.247130,148.041188,-75537.016103
20835.746006,5625.565159,3552.988522,-74311.263306
20835.748559,3256.906145,12731.542202,-74770.920605
20835.751116,3404.947333,8142.265362,-78754.617194
20835.753673,6069.688724,7105.977043,-75077.358804
20835.756230,9622.677246,4589.276840,-72779.072310
20835.758787,-1036.288319,4589.276840,-74617.701505
20835.761343,5921.647536,15396.283594,-75077.358804
20835.763900,15840.407159,19837.519246,-75996.673402
20835.766457,11399.171507,24278.754898,-75230.577904
20835.769014,-296.082377,15988.448347,-74311.263306
20835.771571,1628.453072,5625.565159,-73238.729609
20835.774128,6661.853478,8586.388927,-74004.825107
20835.776684,-16136.489536,2368.659014,-76915.987999
20835.779241,3108.864956,-2072.576638,-77835.302597
20835.781798,-7846.182985,-5329.482782,-76609.549800
20835.784355,10214.842000,1332.370696,-75843.454302
20835.786912,-1332.370696,5329.482782,-74924.139704
20835.789468,1628.453072,9326.594869,-75077.358804
20835.792025,-7550.100608,7402.059420,-74924.139704
20835.794582,-8586.388927,4145.153275,-74770.920605
20835.797139,2516.700203,296.082377,-75843.454302
20835.799696,-1924.535449,2516.700203,-75996.673402
20835.802252,8734.430116,9770.718434,-74617.701505
20835.804809,-7698.141797,2220.617826,-74464.482406
20835.807366,-5921.647536,740.205942,-74770.920605
20835.809923,-14952.160028,-4589.276840,-75843.454302
20835.812480,3997.112087,-2220.617826,-76609.549800
20835.815036,10066.800811,5033.400406,-75996.673402
20835.817593,-888.247130,3404.947333,-75077.358804
20835.820150,-13471.748144,-5773.606348,-75996.673402
20835.822707,16432.571912,7550.100608,-72166.195912
20835.825264,-18357.107362,13471.748144,-74924.139704
20835.827820,23390.507767,20281.642811,-76303.111601
20835.830377,17764.942608,17912.983796,-74004.825107
20835.832934,7402.059420,16432.571912,-71859.757712
20835.835491,-1776.494261,1332.370696,-74311.263306
20835.838048,4737.318029,1628.453072,-74464.482406
20835.840605,-3552.988522,10066.800811,-74311.263306
20835.843161,8734.430116,14952.160028,-76609.549800
20835.845718,5773.606348,7846.182985,-75383.797003
20835.848275,8734.430116,4145.153275,-72932.291410
20835.850832,1480.411884,2812.782580,-73851.606007
20835.853363,1924.535449,11695.253884,-74311.263306
20835.855893,15692.365970,17468.860231,-76149.892501
20835.858424,11103.089130,25463.084405,-75383.797003
20835.860955,3849.070898,18357.107362,-75077.358804
20835.863486,3997.112087,7846.182985,-74158.044206
20835.866016,10362.883188,8438.347739,-72932.291410
20835.868547,-18653.189738,4737.318029,-74924.139704
20835.871078,5181.441594,-148.041188,-77222.426198
20835.873609,-13471.748144,-5329.482782,-75690.235202
20835.876140,9326.594869,1332.370696,-76609.549800
20835.878670,-1036.288319,3108.864956,-75077.358804
20835.881201,2220.617826,10362.883188,-74004.825107
20835.883732,-3997.112087,8142.265362,-75383.797003
20835.886263,-8586.388927,4441.235652,-75690.235202
20835.888794,-444.123565,740.205942,-77222.426198
20835.891324,3997.112087,444.123565,-77835.302597
20835.893855,3997.112087,9178.553681,-74617.701505
20835.896386,-2664.741391,4293.194464,-74311.263306
20835.898917,-6661.853478,740.205942,-75077.358804
20835.901447,-12731.542202,-3108.864956,-75077.358804
20835.903978,-6365.771101,-4145.153275,-77222.426198
20835.906509,14359.995275,4885.359217,-76456.330700
20835.909040,-3701.029710,3552.988522,-75690.235202
20835.911571,-9326.594869,-4145.153275,-75537.016103
20835.914101,16876.695478,-4145.153275,-74617.701505
20835.916632,-4441.235652,13471.748144,-74158.044206
20835.919163,-6365.771101,16580.613101,-76456.330700
20835.921694,29016.072926,22058.137072,-74617.701505
