#time,accel_x,accel_y,accel_z
26188.483601,3849.070898,5625.565159,-75537.016103
26188.486233,2960.823768,3256.906145,-76762.768900
26188.488866,-2368.659014,3108.864956,-75843.454302
26188.491499,8290.306550,2516.700203,-75996.673402
26188.494131,-4589.276840,6809.894666,-74158.044206
26188.496764,16284.530724,3256.906145,-76609.549800
26188.499396,2960.823768,4145.153275,-75383.797003
26188.502029,7846.182985,148.041188,-74924.139704
26188.504662,-740.205942,444.123565,-75690.235202
26188.507294,-7402.059420,-6069.688724,-76915.987999
26188.509927,888.247130,-2664.741391,-75077.358804
26188.512560,2516.700203,10214.842000,-73391.948708
26188.515192,0.000000,23982.672521,-76303.111601
26188.517825,0.000000,24722.878463,-75230.577904
26188.520457,-6513.812290,16284.530724,-73238.729609
26188.523090,2220.617826,740.205942,-73085.510509
26188.525723,-1332.370696,3256.906145,-73698.386908
26188.528353,6069.688724,9622.677246,-76456.330700
26188.530983,740.205942,7994.224174,-77528.864398
26188.533613,1776.494261,3256.906145,-75996.673402
26188.536244,-6069.688724,5477.523971,-73851.606007
26188.538874,-148.041188,6513.812290,-74617.701505
26188.541504,148.041188,13175.665768,-74617.701505
26188.544134,-296.082377,8142.265362,-76609.549800
26188.546765,8734.430116,7254.018232,-75230.577904
26188.549395,-6069.688724,8586.388927,-73698.386908
26188.552025,6513.812290,5625.565159,-76149.892501
26188.554655,-13915.871710,7994.224174,-75230.577904
26188.557286,11991.336260,9770.718434,-73851.606007
26188.559916,-8586.388927,8290.306550,-75077.358804
26188.562546,9622.677246,5773.606348,-76149.892501
26188.565176,-4293.194464,8734.430116,-75996.673402
26188.567807,1924.535449,8142.265362,-75230.577904
26188.570437,-9474.636058,17616.901420,-74464.482406
26188.573067,-888.247130,15396.283594,-75230.577904
26188.575697,-3256.906145,14508.036463,-74311.263306
26188.578328,2960.823768,6661.853478,-74004.825107
26188.580958,-1184.329507,4589.276840,-74924.139704
26188.583588,4145.153275,6513.812290,-76762.768900
26188.586218,0.000000,3701.029710,-76915.987999
26188.588849,-1332.370696,5477.523971,-75383.797003
26188.591479,-8586.388927,7105.977043,-75690.235202
26188.594109,11103.089130,7105.977043,-75843.454302
26188.596739,-3108.864956,7402.059420,-72012.976812
26188.599370,5329.482782,13175.665768,-75537.016103
26188.602000,15248.242405,6809.894666,-78601.398095
26188.604630,4145.153275,-2072.576638,-74617.701505
26188.607261,-4145.153275,-6069.688724,-74464.482406
26188.609891,-1628.453072,740.205942,-75996.673402
26188.612522,4441.235652,10510.924376,-75383.797003
26188.615152,13175.665768,8734.430116,-75537.016103
26188.617783,3108.864956,6957.935855,-74924.139704
26188.620414,6661.853478,1924.535449,-74770.920605
26188.623044,1332.370696,2664.741391,-74311.263306
26188.625675,-592.164754,4145.153275,-76303.111601
26188.628306,-740.205942,6661.853478,-76456.330700
26188.630937,9770.718434,5773.606348,-76456.330700
26188.633567,6809.894666,2368.659014,-74004.825107
26188.636198,2812.782580,-148.041188,-75843.454302
26188.638829,-2072.576638,2664.741391,-75843.454302
26188.641459,6809.894666,7846.182985,-75843.454302
26188.644090,-5625.565159,9918.759623,-74464.482406
26188.646721,11547.212695,4145.153275,-76303.111601
26188.649352,-1924.535449,7846.182985,-75077.358804
26188.651982,13619.789333,3552.988522,-74464.482406
26188.654613,5625.565159,5033.400406,-74004.825107
26188.657244,1628.453072,3997.112087,-75843.454302
26188.659874,10658.965565,1036.288319,-76456.330700
26188.662505,-148.041188,1776.494261,-73545.167808
26188.665136,9474.636058,-740.205942,-75383.797003
26188.667767,-4441.235652,3404.947333,-76456.330700
26188.670397,10214.842000,6957.935855,-75690.235202
26188.673028,-3701.029710,9918.759623,-74770.920605
26188.675659,15396.283594,1480.411884,-76303.111601
26188.678289,-8290.306550,4145.153275,-73851.606007
26188.680920,9622.677246,5181.441594,-76149.892501
26188.683551,-5033.400406,9918.759623,-75690.235202
26188.686182,11399.171507,3108.864956,-76303.111601
26188.688812,2664.741391,0.000000,-75077.358804
26188.691443,1184.329507,1332.370696,-75537.016103
26188.694074,15248.242405,5625.565159,-75230.577904
26188.696705,-9474.636058,5773.606348,-75077.358804
26188.699335,2812.782580,14508.036463,-75537.016103
26188.701966,-1924.535449,16580.613101,-73085.510509
26188.704597,740.205942,9770.718434,-73391.948708
26188.707227,2664.741391,6217.729913,-74924.139704
26188.709858,-444.123565,3108.864956,-75843.454302
26188.712489,6217.729913,5033.400406,-75077.358804
26188.715120,-6069.688724,3849.070898,-74617.701505
26188.717747,-8290.306550,8142.265362,-75383.797003
26188.720375,-296.082377,12879.583391,-75383.797003
26188.723003,1184.329507,14952.160028,-73391.948708
26188.725630,0.000000,10807.006753,-74924.139704
26188.728258,-2516.700203,6365.771101,-75383.797003
26188.730885,1480.411884,5921.647536,-74311.263306
26188.733513,592.164754,5921.647536,-74617.701505
26188.736141,1332.370696,6661.853478,-77528.864398
26188.738768,-3849.070898,8142.265362,-75996.673402
26188.741396,-2368.659014,8734.430116,-73851.606007
26188.744024,2516.700203,7846.182985,-74311.263306
26188.746651,-4145.153275,6661.853478,-74924.139704
26188.749279,4589.276840,6217.729913,-75996.673402
26188.751907,-4145.153275,9918.759623,-75230.577904
26188.754534,3256.906145,8586.388927,-75690.235202
26188.757162,-2220.617826,6217.729913,-76149.892501
26188.759790,-1332.370696,7846.182985,-73698.386908
26188.762417,3701.029710,6513.812290,-74158.044206
26188.765045,-1628.453072,9326.594869,-75690.235202
26188.767673,1332.370696,9622.677246,-75537.016103
26188.770300,-5625.565159,16432.571912,-74158.044206
26188.772928,-3256.906145,17024.736666,-74311.263306
26188.775556,2072.576638,14211.954086,-74464.482406
26188.778183,2220.617826,7254.018232,-74158.044206
26188.780811,-740.205942,4441.235652,-74158.044206
26188.783439,3404.947333,6957.935855,-75077.358804
26188.786066,-296.082377,1480.411884,-77528.864398
26188.788694,-1332.370696,5921.647536,-74770.920605
26188.791322,-10362.883188,10955.047942,-74158.044206
26188.793949,13471.748144,9474.636058,-75230.577904
26188.796577,888.247130,6513.812290,-73238.729609
26188.799205,-2664.741391,9474.636058,-73698.386908
26188.801832,23094.425390,2960.823768,-78448.178995
26188.804460,-592.164754,-3701.029710,-75230.577904
26188.807088,148.041188,-4441.235652,-75537.016103
26188.809715,740.205942,1184.329507,-76915.987999
26188.812343,-3256.906145,10807.006753,-75537.016103
26188.814971,14359.995275,10955.047942,-74158.044206
26188.817598,4145.153275,8586.388927,-75230.577904
26188.820226,10362.883188,3108.864956,-75537.016103
26188.822733,1184.329507,1628.453072,-74311.263306
26188.825239,-740.205942,1184.329507,-76456.330700
26188.827746,296.082377,2960.823768,-75843.454302
26188.830252,7550.100608,6217.729913,-75230.577904
26188.832759,11399.171507,4589.276840,-75996.673402
26188.835266,6957.935855,4145.153275,-75537.016103
26188.837772,1184.329507,5329.482782,-76609.549800
26188.840279,-592.164754,6365.771101,-76762.768900
26188.842786,444.123565,7698.141797,-74924.139704
26188.845292,1332.370696,7550.100608,-75537.016103
26188.847799,11251.130318,5329.482782,-77528.864398
26188.850305,0.000000,4441.235652,-74617.701505
26188.852812,8290.306550,1036.288319,-74924.139704
26188.855319,-1924.535449,1628.453072,-75537.016103
26188.857825,7846.182985,-444.123565,-76609.549800
26188.860332,-740.205942,3701.029710,-75077.358804
26188.862839,10510.924376,4145.153275,-75537.016103
26188.865345,-740.205942,6809.894666,-75383.797003
26188.867852,12287.418637,4737.318029,-75537.016103
26188.870358,-148.041188,3108.864956,-74770.920605
26188.872865,-740.205942,4737.318029,-75690.235202
26188.875372,1776.494261,8290.306550,-76303.111601
26188.877878,2220.617826,8142.265362,-75537.016103
26188.880385,14063.912898,2220.617826,-74617.701505
26188.882892,-2072.576638,296.082377,-74924.139704
26188.885398,5329.482782,2664.741391,-75383.797003
26188.887905,6217.729913,5329.482782,-75383.797003
26188.890412,-28275.866984,10362.883188,-75537.016103
26188.892918,13767.830521,12435.459826,-76303.111601
26188.895425,-9178.553681,15692.365970,-72932.291410
26188.897931,11843.295072,10658.965565,-73851.606007
26188.900438,-1480.411884,8586.388927,-74770.920605
26188.902945,9622.677246,6069.688724,-75996.673402
26188.905451,-3108.864956,6957.935855,-74617.701505
26188.907958,-7550.100608,2516.700203,-75690.235202
26188.910465,444.123565,10214.842000,-74770.920605
26188.912971,2960.823768,14359.995275,-74311.263306
26188.915478,1036.288319,13767.830521,-74004.825107
26188.917984,-4589.276840,11251.130318,-75077.358804
26188.920491,296.082377,6809.894666,-74924.139704
26188.923031,-4441.235652,5477.523971,-74158.044206
26188.925571,8438.347739,8438.347739,-74617.701505
26188.928111,1776.494261,6809.894666,-78141.740796
26188.930650,-444.123565,8438.347739,-75077.358804
26188.933190,296.082377,6217.729913,-74158.044206
26188.935730,-4293.194464,6069.688724,-74311.263306
26188.938270,3256.906145,6069.688724,-76303.111601
26188.940810,-3701.029710,9622.677246,-74770.920605
26188.943350,5921.647536,10362.883188,-73698.386908
26188.945889,-2812.782580,7402.059420,-74311.263306
26188.948429,-2368.659014,5625.565159,-76149.892501
26188.950969,444.123565,7698.141797,-74617.701505
26188.953509,-4441.235652,9770.718434,-74464.482406
26188.956049,2516.700203,13767.830521,-75843.454302
26188.958588,-7994.224174,17616.901420,-75230.577904
26188.961128,5033.400406,16728.654289,-74158.044206
26188.963668,1036.288319,7550.100608,-75077.358804
26188.966208,-888.247130,2960.823768,-74617.701505
26188.968748,-2812.782580,7550.100608,-74770.920605
26188.971288,7105.977043,3552.988522,-77682.083497
26188.973827,-4441.235652,6365.771101,-75537.016103
26188.976367,-4589.276840,9030.512492,-74770.920605
26188.978907,2664.741391,11399.171507,-74311.263306
26188.981447,10066.800811,4145.153275,-74311.263306
26188.983987,-14508.036463,9474.636058,-72625.853210
26188.986527,28127.825796,5477.523971,-77375.645298
26188.989066,3256.906145,-3701.029710,-77222.426198
26188.991606,-444.123565,-5329.482782,-75230.577904
26188.994146,888.247130,-1184.329507,-76609.549800
26188.996686,-3997.112087,7402.059420,-76149.892501
26188.999226,10658.965565,14211.954086,-74004.825107
26189.001766,6661.853478,10362.883188,-75077.358804
26189.004305,10955.047942,6217.729913,-75383.797003
26189.006845,1332.370696,1332.370696,-75537.016103
26189.009385,7550.100608,-2072.576638,-75996.673402
26189.011925,-6365.771101,2368.659014,-75996.673402
26189.014465,7105.977043,4145.153275,-76303.111601
26189.017005,6513.812290,7994.224174,-73085.510509
26189.019544,13471.748144,2072.576638,-75537.016103
26189.022084,-3108.864956,7402.059420,-75537.016103
26189.024648,6217.729913,5033.400406,-75537.016103
26189.027211,-9474.636058,7550.100608,-74311.263306
26189.029774,17024.736666,5329.482782,-76303.111601
26189.032338,592.164754,6513.812290,-75690.235202
26189.034901,10658.965565,740.205942,-75690.235202
26189.037465,1332.370696,2220.617826,-74004.825107
26189.040028,1924.535449,1036.288319,-76303.111601
26189.042591,-1184.329507,1184.329507,-77222.426198
26189.045155,5477.523971,4737.318029,-76303.111601
26189.047718,3997.112087,5921.647536,-74464.482406
26189.050282,15840.407159,1628.453072,-76149.892501
26189.052845,-2516.700203,2664.741391,-74464.482406
26189.055408,2072.576638,6661.853478,-74158.044206
26189.057972,148.041188,9918.759623,-75843.454302
26189.060535,148.041188,7994.224174,-76149.892501
26189.063099,13767.830521,1776.494261,-74924.139704
26189.065662,-2812.782580,444.123565,-75230.577904
26189.068225,7846.182985,2368.659014,-75230.577904
26189.070789,15396.283594,2516.700203,-75537.016103
26189.073352,-36418.132346,11695.253884,-74464.482406
26189.075916,17616.901420,13175.665768,-77069.207099
26189.078479,-10658.965565,17320.819043,-72779.072310
26189.081043,13471.748144,11547.212695,-74311.263306
26189.083606,-3552.988522,7846.182985,-74464.482406
26189.086169,5773.606348,4145.153275,-75077.358804
26189.088733,-3404.947333,5477.523971,-74464.482406
26189.091296,-12139.377449,3849.070898,-75996.673402
26189.093860,3404.947333,9326.594869,-75537.016103
26189.096423,740.205942,14211.954086,-74770.920605
26189.098986,4737.318029,14063.912898,-74464.482406
26189.101550,-7550.100608,12287.418637,-73851.606007
26189.104113,2516.700203,3997.112087,-75230.577904
26189.106677,-7994.224174,6365.771101,-74464.482406
26189.109240,5773.606348,9918.759623,-75690.235202
26189.111803,-592.164754,8290.306550,-76762.768900
26189.114367,6513.812290,5625.565159,-75077.358804
26189.116930,-3108.864956,5033.400406,-71859.757712
26189.119494,0.000000,4589.276840,-74158.044206
26189.122057,-2220.617826,9178.553681,-75383.797003
26189.124620,3701.029710,9770.718434,-75383.797003
26189.127199,2220.617826,10214.842000,-73698.386908
26189.129777,-1332.370696,7105.977043,-74617.701505
26189.132356,1628.453072,3997.112087,-75230.577904
26189.134934,-9918.759623,9030.512492,-73545.167808
26189.137513,3552.988522,13471.748144,-74464.482406
26189.140091,-8586.388927,18949.272115,-75383.797003
26189.142669,11843.295072,16432.571912,-75537.016103
26189.145248,-7105.977043,8734.430116,-73238.729609
26189.147826,2664.741391,2960.823768,-74770.920605
26189.150405,-5625.565159,6957.935855,-74464.482406
26189.152983,10214.842000,4589.276840,-76149.892501
26189.155562,-6661.853478,5625.565159,-75690.235202
26189.158140,-1332.370696,10214.842000,-75383.797003
26189.160718,5921.647536,11251.130318,-75077.358804
26189.163297,1628.453072,3701.029710,-73698.386908
26189.165875,9030.512492,8734.430116,-75383.797003
26189.168454,17912.983796,5477.523971,-76762.768900
26189.171032,8438.347739,-3256.906145,-76149.892501
26189.173611,-5773.606348,-4885.359217,-75230.577904
26189.176189,4145.153275,-888.247130,-76762.768900
26189.178767,-6809.894666,8586.388927,-75383.797003
26189.181346,8586.388927,12731.542202,-74617.701505
26189.183924,7402.059420,11399.171507,-75077.358804
26189.186503,11103.089130,2664.741391,-74924.139704
26189.189081,1924.535449,1332.370696,-74464.482406
26189.191660,-1924.535449,-4441.235652,-76915.987999
26189.194238,-1332.370696,2812.782580,-76915.987999
26189.196816,3552.988522,5181.441594,-75843.454302
26189.199395,6661.853478,8734.430116,-75230.577904
26189.201973,8882.471304,2812.782580,-75077.358804
26189.204552,4145.153275,3701.029710,-75077.358804
26189.207130,-13619.789333,8142.265362,-74158.044206
26189.209709,15396.283594,6069.688724,-75537.016103
26189.212287,-8586.388927,8734.430116,-75996.673402
26189.214865,24426.796086,740.205942,-76762.768900
26189.217444,-11399.171507,2368.659014,-74158.044206
26189.220022,18357.107362,-3404.947333,-75843.454302
26189.222601,-8882.471304,4737.318029,-75077.358804
26189.225179,7402.059420,2812.782580,-77528.864398
26189.227758,9178.553681,8438.347739,-74617.701505
26189.230346,17468.860231,148.041188,-75843.454302
26189.232932,-8290.306550,2072.576638,-73851.606007
26189.235518,3701.029710,5773.606348,-74617.701505
26189.238105,4737.318029,10807.006753,-74311.263306
26189.240691,0.000000,7698.141797,-75690.235202
26189.243277,12731.542202,2516.700203,-75230.577904
26189.245863,-3849.070898,1480.411884,-75383.797003
26189.248450,13471.748144,1924.535449,-76149.892501
26189.251036,-9622.677246,2072.576638,-75077.358804
26189.253622,-15100.201217,17320.819043,-75077.358804
26189.256208,11251.130318,14952.160028,-76149.892501
26189.258795,-6513.812290,12731.542202,-74617.701505
26189.261381,10807.006753,7550.100608,-74464.482406
26189.263967,-2368.659014,5773.606348,-74464.482406
26189.266553,1332.370696,4441.235652,-75077.358804
26189.269140,-888.247130,5033.400406,-75383.797003
26189.271726,-12287.418637,6365.771101,-76149.892501
26189.274312,10510.924376,8882.471304,-75537.016103
26189.276898,-6661.853478,14656.077652,-73391.948708
26189.279485,7846.182985,12731.542202,-74770.920605
26189.282071,-9178.553681,12435.459826,-74770.920605
26189.284657,5181.441594,4589.276840,-75843.454302
26189.287243,-7550.100608,6365.771101,-75077.358804
26189.289830,7254.018232,9030.512492,-76303.111601
26189.292416,7550.100608,7254.018232,-77069.207099
26189.295002,-2960.823768,5773.606348,-74158.044206
26189.297588,2960.823768,2516.700203,-72625.853210
26189.300175,-7550.100608,7105.977043,-74004.825107
26189.302761,5181.441594,8438.347739,-77835.302597
26189.305347,-5625.565159,12879.583391,-75843.454302
26189.307934,4737.318029,9770.718434,-74311.263306
26189.310520,-4737.318029,5773.606348,-76149.892501
26189.313106,-3552.988522,9326.594869,-74158.044206
26189.315692,-3701.029710,14804.118840,-73391.948708
26189.318279,1628.453072,18061.024985,-75230.577904
26189.320865,3108.864956,13767.830521,-75537.016103
26189.323451,2220.617826,6217.729913,-74004.825107
26189.326037,-2812.782580,5329.482782,-74158.044206
26189.328624,1184.329507,3997.112087,-75843.454302
26189.331210,2516.700203,4145.153275,-76609.549800
26189.333802,-3404.947333,7254.018232,-75843.454302
26189.336393,0.000000,14359.995275,-75230.577904
26189.338985,16284.530724,2960.823768,-76456.330700
26189.341577,-17468.860231,5625.565159,-72625.853210
26189.344169,24426.796086,5181.441594,-75996.673402
26189.346761,2664.741391,3404.947333,-75843.454302
26189.349353,4293.194464,-2220.617826,-75690.235202
26189.351944,-5033.400406,-2220.617826,-74617.701505
26189.354536,3997.112087,4145.153275,-76303.111601
26189.357128,-592.164754,11991.336260,-74158.044206
26189.359720,10955.047942,11843.295072,-74617.701505
26189.362312,5773.606348,9326.594869,-75230.577904
26189.364903,10807.006753,2960.823768,-75230.577904
26189.367495,3552.988522,-296.082377,-75077.358804
26189.370087,-5181.441594,-3997.112087,-77835.302597
26189.372679,3404.947333,2812.782580,-75690.235202
26189.375271,1480.411884,9770.718434,-75690.235202
26189.377863,9918.759623,5773.606348,-75230.577904
26189.380454,3849.070898,1184.329507,-74311.263306
26189.383046,1480.411884,5773.606348,-74464.482406
26189.385638,3404.947333,5921.647536,-75996.673402
26189.388230,-3849.070898,8882.471304,-74464.482406
26189.390822,13323.706956,4885.359217,-75996.673402
26189.393413,3108.864956,1332.370696,-75230.577904
26189.396005,6957.935855,-740.205942,-74311.263306
26189.398597,296.082377,-296.082377,-75537.016103
26189.401189,2812.782580,3997.112087,-77222.426198
26189.403781,8142.265362,5773.606348,-75996.673402
26189.406373,6069.688724,4145.153275,-74311.263306
26189.408964,1628.453072,2368.659014,-75077.358804
26189.411556,444.123565,7254.018232,-75383.797003
26189.414148,2072.576638,8438.347739,-74924.139704
26189.416740,10955.047942,3552.988522,-75077.358804
26189.419332,-444.123565,1332.370696,-74924.139704
26189.421924,9030.512492,3108.864956,-75537.016103
26189.424515,14508.036463,1184.329507,-75843.454302
26189.427107,-33161.226202,5477.523971,-74311.263306
26189.429699,8142.265362,15692.365970,-76456.330700
26189.432291,-6513.812290,19541.436869,-73238.729609
26189.434883,-296.082377,13619.789333,-72932.291410
26189.437402,2664.741391,8290.306550,-75077.358804
26189.439921,3997.112087,4145.153275,-75383.797003
26189.442440,-3108.864956,7698.141797,-74158.044206
26189.444959,-3701.029710,888.247130,-77222.426198
26189.447479,-740.205942,8586.388927,-76149.892501
26189.449998,6957.935855,11843.295072,-74617.701505
26189.452517,-2220.617826,13323.706956,-74004.825107
26189.455036,1036.288319,10214.842000,-75230.577904
26189.457555,-8586.388927,9178.553681,-74004.825107
26189.460075,1924.535449,5921.647536,-73698.386908
26189.462594,-3849.070898,9326.594869,-73391.948708
26189.465113,10955.047942,7105.977043,-76762.768900
26189.467632,2220.617826,3701.029710,-77682.083497
26189.470152,-16876.695478,8586.388927,-72012.976812
26189.472671,6809.894666,4293.194464,-73545.167808
26189.475190,-8290.306550,6809.894666,-77682.083497
26189.477709,3997.112087,11547.212695,-75996.673402
26189.480228,-2220.617826,10955.047942,-75537.016103
26189.482748,-1628.453072,8734.430116,-74617.701505
26189.485267,148.041188,9030.512492,-75537.016103
26189.487786,-5329.482782,14359.995275,-72779.072310
26189.490305,4885.359217,14063.912898,-74311.263306
26189.492824,444.123565,10510.924376,-75843.454302
26189.495344,-2368.659014,5773.606348,-74464.482406
26189.497863,-1036.288319,6217.729913,-74004.825107
26189.500382,5033.400406,3256.906145,-75996.673402
26189.502901,-5773.606348,5329.482782,-74617.701505
26189.505420,-2664.741391,11399.171507,-75690.235202
26189.507940,5773.606348,12435.459826,-75230.577904
26189.510459,-1776.494261,3997.112087,-73391.948708
26189.512978,1924.535449,4145.153275,-74924.139704
26189.515497,17912.983796,2220.617826,-76915.987999
26189.518017,7254.018232,-2368.659014,-76456.330700
26189.520536,2220.617826,-2220.617826,-76303.111601
26189.523055,-2960.823768,1924.535449,-76762.768900
26189.525574,-444.123565,8438.347739,-74770.920605
26189.528093,6365.771101,10066.800811,-74158.044206
26189.530613,7698.141797,8142.265362,-75077.358804
26189.533132,9918.759623,5181.441594,-75077.358804
26189.535651,3552.988522,1036.288319,-75230.577904
26189.538192,2664.741391,-1480.411884,-75383.797003
26189.540733,-296.082377,148.041188,-76456.330700
26189.543275,444.123565,8290.306550,-75996.673402
26189.545816,14211.954086,8142.265362,-75230.577904
26189.548357,296.082377,4589.276840,-74464.482406
26189.550898,11991.336260,2664.741391,-74770.920605
26189.553439,-7846.182985,7550.100608,-74617.701505
26189.555981,8290.306550,6365.771101,-76149.892501
26189.558522,1184.329507,6513.812290,-75843.454302
26189.561063,9918.759623,1332.370696,-77222.426198
26189.563604,6365.771101,-148.041188,-75537.016103
26189.566145,592.164754,-444.123565,-74617.701505
26189.568687,8142.265362,2368.659014,-75537.016103
26189.571228,2220.617826,2812.782580,-76762.768900
26189.573769,3997.112087,6513.812290,-75383.797003
26189.576310,-1480.411884,9178.553681,-74617.701505
26189.578852,2664.741391,7994.224174,-74924.139704
26189.581393,9622.677246,4737.318029,-74464.482406
26189.583934,10807.006753,888.247130,-74464.482406
26189.586475,-6809.894666,1924.535449,-74311.263306
26189.589016,18801.230927,3404.947333,-76762.768900
26189.591558,-14952.160028,2960.823768,-75230.577904
26189.594099,-10658.965565,15396.283594,-75383.797003
26189.596640,3849.070898,16728.654289,-74464.482406
26189.599181,-5921.647536,13767.830521,-74464.482406
26189.601722,13323.706956,8734.430116,-75383.797003
26189.604264,-2516.700203,5329.482782,-74924.139704
26189.606805,148.041188,4145.153275,-75383.797003
26189.609346,-2960.823768,5477.523971,-74924.139704
26189.611887,-12139.377449,7254.018232,-74464.482406
26189.614428,11251.130318,9770.718434,-75077.358804
26189.616970,-2516.700203,12731.542202,-73391.948708
26189.619511,592.164754,14656.077652,-74158.044206
26189.622052,-6809.894666,10362.883188,-74770.920605
26189.624593,-592.164754,2960.823768,-75996.673402
26189.627135,-740.205942,6809.894666,-73238.729609
26189.629676,-296.082377,10214.842000,-74004.825107
26189.632217,0.000000,8586.388927,-77222.426198
26189.634758,3108.864956,2812.782580,-76456.330700
26189.637299,-6957.935855,5773.606348,-71246.881314
26189.639857,296.082377,6513.812290,-74617.701505
26189.642415,-2368.659014,10658.965565,-76609.549800
26189.644972,-148.041188,12139.377449,-75383.797003
26189.647530,0.000000,11251.130318,-74004.825107
26189.650088,-3552.988522,9030.512492,-74770.920605
26189.652645,-444.123565,13619.789333,-74617.701505
26189.655203,-4589.276840,14211.954086,-73545.167808
26189.657761,5477.523971,10066.800811,-75230.577904
26189.660319,-5329.482782,8734.430116,-75537.016103
26189.662876,2664.741391,6217.729913,-74770.920605
26189.665434,1480.411884,4293.194464,-74311.263306
26189.667992,-4589.276840,3997.112087,-76149.892501
26189.670549,-5329.482782,13471.748144,-75690.235202
26189.673107,14359.995275,9326.594869,-75537.016103
26189.675665,-11843.295072,3552.988522,-73085.510509
26189.678222,15396.283594,2516.700203,-76303.111601
26189.680780,13767.830521,1184.329507,-76456.330700
26189.683338,4441.235652,-3256.906145,-75996.673402
26189.685895,-3404.947333,296.082377,-75537.016103
26189.688453,5033.400406,2664.741391,-76915.987999
26189.691011,-7550.100608,10066.800811,-74464.482406
26189.693568,12731.542202,10510.924376,-74004.825107
26189.696126,5625.565159,6513.812290,-75230.577904
26189.698684,11399.171507,3552.988522,-75383.797003
26189.701242,6365.771101,740.205942,-75077.358804
26189.703799,-2812.782580,-2960.823768,-77222.426198
26189.706357,-2072.576638,2072.576638,-76915.987999
26189.708915,3701.029710,9030.512492,-76303.111601
26189.711472,11991.336260,6365.771101,-76303.111601
26189.714030,4589.276840,3256.906145,-74770.920605
26189.716588,888.247130,5477.523971,-73698.386908
26189.719145,3404.947333,5921.647536,-76609.549800
26189.721703,888.247130,7550.100608,-75537.016103
26189.724261,6513.812290,3256.906145,-76149.892501
26189.726818,6957.935855,-888.247130,-77222.426198
26189.729376,4589.276840,0.000000,-74311.263306
26189.731934,9178.553681,1184.329507,-74924.139704
26189.734491,3701.029710,-444.123565,-76762.768900
26189.737049,4145.153275,6365.771101,-75537.016103
26189.739607,-4145.153275,11843.295072,-74311.263306
26189.742177,5773.606348,9474.636058,-75230.577904
26189.744747,12139.377449,3404.947333,-75690.235202
26189.747318,8882.471304,-1036.288319,-74924.139704
26189.749888,-9770.718434,1332.370696,-75077.358804
26189.752458,21169.889941,1628.453072,-77528.864398
26189.755028,-10510.924376,1924.535449,-75690.235202
26189.757599,-6957.935855,17764.942608,-75230.577904
26189.760169,5181.441594,19393.395680,-74464.482406
26189.762739,-6809.894666,15100.201217,-73851.606007
26189.765309,11695.253884,8882.471304,-74770.920605
26189.767880,1332.370696,4737.318029,-75537.016103
26189.770450,-7105.977043,3552.988522,-74924.139704
26189.773020,0.000000,5773.606348,-75230.577904
26189.775590,-11547.212695,4589.276840,-76609.549800
26189.778161,14211.954086,9030.512492,-75383.797003
26189.780731,-3701.029710,14508.036463,-72625.853210
26189.783301,888.247130,13767.830521,-74464.482406
26189.785872,-7105.977043,11399.171507,-74311.263306
26189.788442,-4737.318029,5181.441594,-75077.358804
26189.791012,5773.606348,5773.606348,-74004.825107
26189.793582,-296.082377,12139.377449,-74617.701505
26189.796153,8142.265362,8882.471304,-77528.864398
26189.798723,-4589.276840,5477.523971,-73238.729609
26189.801293,148.041188,3552.988522,-73851.606007
26189.803863,-8438.347739,7550.100608,-75537.016103
26189.806434,-592.164754,12435.459826,-77069.207099
26189.809004,1036.288319,13323.706956,-74617.701505
26189.811574,-296.082377,11843.295072,-73391.948708
26189.814144,2664.741391,11695.253884,-74617.701505
26189.816715,-1480.411884,9178.553681,-75383.797003
26189.819285,-592.164754,10066.800811,-74004.825107
26189.821855,-5921.647536,10807.006753,-74617.701505
26189.824435,3997.112087,9474.636058,-75537.016103
26189.827014,3552.988522,4145.153275,-75537.016103
26189.829594,-4589.276840,4441.235652,-74004.825107
26189.832173,-3997.112087,11695.253884,-75383.797003
26189.834752,13915.871710,8142.265362,-76609.549800
26189.837332,-7846.182985,4293.194464,-74617.701505
26189.839911,8734.430116,4737.318029,-75383.797003
26189.842491,10955.047942,-592.164754,-76915.987999
26189.845070,1036.288319,-4145.153275,-75230.577904
26189.847650,-1776.494261,-888.247130,-75996.673402
26189.850229,3997.112087,4589.276840,-76915.987999
26189.852809,-5329.482782,12879.583391,-74158.044206
26189.855388,12879.583391,10658.965565,-75077.358804
26189.857967,7105.977043,5033.400406,-75230.577904
26189.860547,9030.512492,1628.453072,-75383.797003
26189.863126,5329.482782,-1332.370696,-75383.797003
26189.865706,-2368.659014,-1184.329507,-77528.864398
26189.868285,-740.205942,5921.647536,-75690.235202
26189.870865,2812.782580,11843.295072,-75077.358804
26189.873444,14211.954086,2960.823768,-75996.673402
26189.876024,-7698.141797,3701.029710,-73085.510509
26189.878603,14952.160028,2072.576638,-75843.454302
26189.881183,-4885.359217,7105.977043,-75230.577904
26189.883762,7254.018232,4885.359217,-75996.673402
26189.886341,740.205942,2220.617826,-75690.235202
26189.888921,10510.924376,-1036.288319,-76303.111601
26189.891500,11103.089130,1036.288319,-74004.825107
26189.894080,1924.535449,740.205942,-74924.139704
26189.896659,1480.411884,4737.318029,-76303.111601
26189.899239,-2072.576638,10362.883188,-75690.235202
26189.901818,592.164754,10362.883188,-74311.263306
26189.904398,12435.459826,5921.647536,-74924.139704
26189.906977,13027.624579,296.082377,-75383.797003
26189.909556,-9326.594869,1776.494261,-74158.044206
26189.912136,24870.919651,-1184.329507,-76609.549800
26189.914715,-19837.519246,1480.411884,-75383.797003
26189.917295,-13027.624579,16580.613101,-75077.358804
26189.919874,9770.718434,17468.860231,-75230.577904
26189.922454,-8438.347739,16580.613101,-73085.510509
26189.925033,14359.995275,9622.677246,-74617.701505
26189.927618,-1924.535449,4737.318029,-75077.358804
26189.930204,-4441.235652,5033.400406,-74004.825107
26189.932789,444.123565,4145.153275,-75996.673402
26189.935374,-10658.965565,5033.400406,-76456.330700
26189.937959,10510.924376,10658.965565,-75537.016103
26189.940544,1332.370696,13175.665768,-72932.291410
26189.943129,-3404.947333,12879.583391,-74311.263306
26189.945715,-2220.617826,10066.800811,-75690.235202
26189.948300,-9918.759623,4441.235652,-75843.454302
26189.950885,6217.729913,5033.400406,-74158.044206
26189.953470,-4589.276840,11103.089130,-76915.987999
26189.956055,4145.153275,8882.471304,-77528.864398
26189.958640,1628.453072,2220.617826,-75996.673402
26189.961226,-9918.759623,7105.977043,-72166.195912
26189.963811,-2072.576638,7550.100608,-75996.673402
26189.966396,-6957.935855,11843.295072,-76609.549800
26189.968981,4145.153275,12879.583391,-74617.701505
26189.971566,1184.329507,15692.365970,-72779.072310
26189.974151,7846.182985,7550.100608,-75690.235202
26189.976737,-2220.617826,7254.018232,-74770.920605
26189.979322,-6809.894666,9770.718434,-73851.606007
26189.981907,-2220.617826,11547.212695,-75537.016103
26189.984492,8290.306550,8290.306550,-76149.892501
26189.987077,444.123565,5033.400406,-75230.577904
26189.989662,-8586.388927,8586.388927,-73698.386908
26189.992247,9770.718434,9918.759623,-75383.797003
26189.994833,2072.576638,2960.823768,-74617.701505
26189.997418,6661.853478,7550.100608,-75383.797003
26190.000003,22502.260637,2368.659014,-76456.330700
26190.002588,7105.977043,-5033.400406,-76149.892501
26190.005173,-592.164754,-3552.988522,-74924.139704
26190.007758,148.041188,-444.123565,-76609.549800
26190.010344,-5181.441594,9770.718434,-75230.577904
26190.012929,1776.494261,14359.995275,-75230.577904
26190.015514,13027.624579,9770.718434,-75230.577904
26190.018099,6809.894666,2072.576638,-75077.358804
26190.020684,8586.388927,-1480.411884,-75077.358804
26190.023269,-1036.288319,-4145.153275,-76149.892501
26190.025855,2072.576638,5477.523971,-75077.358804
26190.028440,-4293.194464,10066.800811,-75690.235202
26190.031029,15396.283594,5477.523971,-76149.892501
26190.033618,-5181.441594,4293.194464,-72779.072310
26190.036207,17172.777854,1036.288319,-73698.386908
26190.038796,444.123565,6069.688724,-75690.235202
26190.041386,3108.864956,4589.276840,-75537.016103
26190.043975,3552.988522,3552.988522,-75077.358804
26190.046564,6661.853478,-1776.494261,-76149.892501
26190.049153,12731.542202,-1628.453072,-75077.358804
26190.051742,2812.782580,740.205942,-74158.044206
26190.054331,-2368.659014,6069.688724,-75843.454302
26190.056921,2960.823768,9622.677246,-76456.330700
26190.059510,3256.906145,8734.430116,-75383.797003
26190.062099,14359.995275,2072.576638,-74770.920605
26190.064688,3256.906145,-1184.329507,-75230.577904
26190.067277,-4885.359217,1924.535449,-75690.235202
26190.069866,28275.866984,-444.123565,-76456.330700
26190.072455,-32569.061448,3849.070898,-74464.482406
26190.075045,-3552.988522,16728.654289,-75537.016103
26190.077634,2516.700203,19837.519246,-73391.948708
26190.080223,1184.329507,16876.695478,-71706.538613
26190.082812,5625.565159,11547.212695,-74158.044206
26190.085401,4441.235652,3997.112087,-75996.673402
26190.087990,-7550.100608,6661.853478,-74004.825107
26190.090580,1480.411884,1036.288319,-77835.302597
26190.093169,-11991.336260,5477.523971,-77222.426198
26190.095758,14211.954086,10807.006753,-75690.235202
26190.098347,-1924.535449,14804.118840,-73851.606007
26190.100936,6069.688724,10510.924376,-74924.139704
26190.103525,-12139.377449,10658.965565,-74158.044206
26190.106115,3256.906145,3256.906145,-75383.797003
26190.108704,-6661.853478,9622.677246,-73545.167808
26190.111293,15840.407159,9326.594869,-77375.645298
26190.113882,-6513.812290,10510.924376,-76915.987999
26190.116471,4145.153275,3256.906145,-74924.139704
26190.119060,-12731.542202,6957.935855,-71553.319513
26190.121649,-4737.318029,9918.759623,-75996.673402
26190.124239,-1628.453072,14656.077652,-76456.330700
26190.126828,7698.141797,16284.530724,-75230.577904
26190.129417,4145.153275,11251.130318,-74004.825107
26190.132006,148.041188,3849.070898,-75843.454302
26190.134596,-9770.718434,6217.729913,-73085.510509
26190.137186,-2812.782580,11547.212695,-74158.044206
26190.139776,4885.359217,10658.965565,-76303.111601
26190.142366,1628.453072,7254.018232,-76149.892501
26190.144956,-6069.688724,9918.759623,-74311.263306
26190.147547,13175.665768,5921.647536,-74617.701505
26190.150137,-1628.453072,148.041188,-73698.386908
26190.152727,-8438.347739,6365.771101,-74924.139704
26190.155317,29756.278868,2960.823768,-77988.521696
26190.157907,5625.565159,-2516.700203,-76915.987999
26190.160497,-592.164754,-3552.988522,-75077.358804
26190.163087,1332.370696,592.164754,-75843.454302
26190.165677,-8734.430116,8586.388927,-74770.920605
26190.168267,7402.059420,14656.077652,-74770.920605
26190.170857,10510.924376,10955.047942,-75230.577904
26190.173447,8142.265362,3552.988522,-74770.920605
26190.176037,9030.512492,-2368.659014,-74617.701505
26190.178627,592.164754,-5329.482782,-75383.797003
26190.181218,1628.453072,2072.576638,-76149.892501
26190.183808,-296.082377,10214.842000,-76915.987999
26190.186398,8882.471304,6069.688724,-75077.358804
26190.188988,4145.153275,2664.741391,-72779.072310
26190.191578,7105.977043,2812.782580,-74924.139704
26190.194168,3997.112087,4885.359217,-76609.549800
26190.196758,1776.494261,4885.359217,-75843.454302
26190.199348,4885.359217,1332.370696,-76456.330700
26190.201938,10362.883188,-3256.906145,-76762.768900
26190.204528,8438.347739,-2220.617826,-74924.139704
26190.207118,-4441.235652,4145.153275,-74924.139704
26190.209708,8882.471304,11251.130318,-76149.892501
26190.212298,-5625.565159,12287.418637,-75843.454302
26190.214888,13915.871710,5033.400406,-75230.577904
26190.217479,9326.594869,-1332.370696,-74924.139704
26190.220069,-2960.823768,-888.247130,-75077.358804
26190.222659,13323.706956,1924.535449,-75690.235202
26190.225249,2664.741391,2812.782580,-75230.577904
26190.227839,-12731.542202,18061.024985,-75690.235202
26190.230429,10510.924376,18357.107362,-74311.263306
26190.233019,-9622.677246,13915.871710,-74158.044206
26190.235609,10955.047942,7846.182985,-75077.358804
26190.238204,444.123565,5625.565159,-75843.454302
26190.240795,-1332.370696,6661.853478,-74311.263306
26190.243386,-7254.018232,3552.988522,-75843.454302
26190.245977,-7402.059420,4145.153275,-76915.987999
26190.248567,7994.224174,9326.594869,-74924.139704
26190.251158,2664.741391,13471.748144,-73085.510509
26190.253749,-5477.523971,14063.912898,-74004.825107
26190.256340,-1332.370696,11991.336260,-74464.482406
26190.258931,-6809.894666,2516.700203,-74617.701505
26190.261522,2368.659014,7550.100608,-73391.948708
26190.264113,740.205942,10214.842000,-75537.016103
26190.266704,4293.194464,8290.306550,-77222.426198
26190.269295,-2072.576638,5921.647536,-74770.920605
26190.271886,-4441.235652,6809.894666,-73085.510509
26190.274477,-10066.800811,8142.265362,-75230.577904
26190.277068,740.205942,12731.542202,-76456.330700
26190.279659,2812.782580,16876.695478,-74311.263306
26190.282250,6513.812290,13027.624579,-75383.797003
26190.284840,-4145.153275,5477.523971,-75996.673402
26190.287431,-8586.388927,7254.018232,-73545.167808
26190.290022,3849.070898,7550.100608,-73851.606007
26190.292613,-2072.576638,7698.141797,-75996.673402
26190.295204,1480.411884,10807.006753,-76303.111601
26190.297795,-4441.235652,14656.077652,-74464.482406
26190.300386,14211.954086,592.164754,-75690.235202
26190.302977,-16876.695478,592.164754,-72472.634111
26190.305568,23834.631332,1184.329507,-76456.330700
26190.308159,11991.336260,1628.453072,-75996.673402
26190.310750,-148.041188,-740.205942,-75537.016103
26190.313341,3108.864956,-296.082377,-76303.111601
26190.315932,888.247130,4441.235652,-74924.139704
26190.318523,-7105.977043,11103.089130,-73851.606007
26190.321114,12287.418637,10510.924376,-75843.454302
26190.323704,9030.512492,7105.977043,-75383.797003
26190.326295,9474.636058,740.205942,-75230.577904
26190.328886,3108.864956,-4589.276840,-75383.797003
26190.331477,-2812.782580,-3404.947333,-76609.549800
26190.334068,5477.523971,8734.430116,-74311.263306
26190.336659,-2960.823768,10362.883188,-75843.454302
26190.339250,10658.965565,5773.606348,-74617.701505
26190.341840,6661.853478,2516.700203,-74770.920605
26190.344430,1776.494261,1924.535449,-76609.549800
26190.347021,7550.100608,2664.741391,-76456.330700
26190.349611,0.000000,3701.029710,-74617.701505
26190.352201,15100.201217,-2516.700203,-76762.768900
26190.354791,-592.164754,-1332.370696,-74617.701505
26190.357381,1332.370696,2072.576638,-74004.825107
26190.359971,3701.029710,9918.759623,-74924.139704
26190.362562,-1036.288319,11843.295072,-76303.111601
26190.365152,13619.789333,6365.771101,-75690.235202
26190.367742,7105.977043,-740.205942,-75077.358804
26190.370332,-5033.400406,-1184.329507,-75537.016103
26190.372922,21910.095883,-2516.700203,-77069.207099
26190.375512,-21169.889941,2664.741391,-75077.358804
26190.378103,-4885.359217,19393.395680,-75230.577904
26190.380693,740.205942,20725.766376,-74311.263306
26190.383283,2368.659014,15988.448347,-71553.319513
26190.385873,7846.182985,10214.842000,-73238.729609
26190.388463,3849.070898,3552.988522,-75843.454302
26190.391053,-7994.224174,5625.565159,-74158.044206
26190.393644,-592.164754,4441.235652,-76762.768900
26190.396234,-6809.894666,5477.523971,-76149.892501
26190.398824,7105.977043,7994.224174,-74311.263306
26190.401414,1480.411884,11843.295072,-73238.729609
26190.404004,-6513.812290,12435.459826,-75537.016103
26190.406595,-2664.741391,9918.759623,-75996.673402
26190.409185,-5773.606348,5329.482782,-75077.358804
26190.411775,296.082377,7105.977043,-73391.948708
26190.414365,4885.359217,8586.388927,-76303.111601
26190.416955,-148.041188,10066.800811,-76303.111601
26190.419545,2220.617826,7550.100608,-74770.920605
26190.422136,-11695.253884,7994.224174,-72625.853210
26190.424726,0.000000,8882.471304,-75843.454302
26190.427316,-1480.411884,15100.201217,-74617.701505
26190.429906,9030.512492,15248.242405,-75230.577904
26190.432496,-148.041188,10955.047942,-75843.454302
26190.435086,-4885.359217,7402.059420,-75690.235202
26190.437677,-2516.700203,6069.688724,-74311.263306
26190.440267,-148.041188,5329.482782,-75383.797003
26190.442857,2664.741391,7402.059420,-76609.549800
26190.445446,-4737.318029,15544.324782,-76303.111601
26190.448036,21465.972318,5477.523971,-75996.673402
26190.450626,-11843.295072,-296.082377,-73391.948708
26190.453215,9178.553681,1332.370696,-76303.111601
26190.455805,17172.777854,296.082377,-76915.987999
26190.458394,6661.853478,-2072.576638,-76609.549800
26190.460984,2960.823768,444.123565,-76456.330700
26190.463573,1628.453072,2516.700203,-76456.330700
26190.466163,-6661.853478,9622.677246,-73851.606007
26190.468753,8586.388927,11399.171507,-74311.263306
26190.471342,6809.894666,8586.388927,-75690.235202
26190.473932,11547.212695,2812.782580,-75690.235202
26190.476521,1776.494261,-888.247130,-75077.358804
26190.479111,4885.359217,-2812.782580,-76149.892501
26190.481700,148.041188,3997.112087,-74464.482406
26190.484290,296.082377,10066.800811,-74617.701505
26190.486880,8586.388927,4737.318029,-75843.454302
26190.489469,2368.659014,3552.988522,-73851.606007
26190.492059,9030.512492,1184.329507,-74770.920605
26190.494648,4589.276840,2220.617826,-76456.330700
26190.497238,7994.224174,1628.453072,-75843.454302
26190.499827,4145.153275,-1036.288319,-75077.358804
26190.502417,5181.441594,-1776.494261,-76762.768900
26190.505007,-1332.370696,3997.112087,-74617.701505
26190.507596,4737.318029,9178.553681,-74464.482406
26190.510186,4441.235652,11695.253884,-75230.577904
26190.512775,13471.748144,4293.194464,-75843.454302
26190.515365,-1036.288319,2812.782580,-73851.606007
26190.517954,3849.070898,148.041188,-76149.892501
26190.520544,14359.995275,-3404.947333,-76609.549800
26190.523133,-35085.761651,6809.894666,-73698.386908
26190.525723,12879.583391,14952.160028,-75690.235202
26190.528313,-11991.336260,21762.054695,-71859.757712
26190.530902,13027.624579,14211.954086,-73391.948708
26190.533492,3849.070898,9178.553681,-75383.797003
26190.536081,2072.576638,5625.565159,-75537.016103
26190.538671,-7846.182985,4885.359217,-75843.454302
26190.541260,-3849.070898,3997.112087,-76915.987999
26190.543850,0.000000,5773.606348,-75843.454302
26190.546440,6957.935855,9326.594869,-74464.482406
26190.549029,3256.906145,11547.212695,-74311.263306
26190.551618,-4441.235652,11695.253884,-74311.263306
26190.554207,2368.659014,6661.853478,-75843.454302
26190.556795,-17912.983796,8734.430116,-73545.167808
26190.559384,12731.542202,6217.729913,-75537.016103
26190.561973,-8438.347739,9178.553681,-77222.426198
26190.564562,14656.077652,10214.842000,-75230.577904
26190.567151,-13323.706956,8438.347739,-72319.415011
26190.569740,444.123565,8290.306550,-73391.948708
26190.572329,-296.082377,12435.459826,-75843.454302
26190.574918,-444.123565,15692.365970,-74770.920605
26190.577507,8586.388927,13767.830521,-75077.358804
26190.580096,-9770.718434,11991.336260,-74617.701505
26190.582685,4885.359217,6069.688724,-75230.577904
26190.585274,-4145.153275,4589.276840,-74004.825107
26190.587863,-444.123565,4737.318029,-74770.920605
26190.590452,-6217.729913,12731.542202,-75996.673402
26190.593041,16284.530724,7994.224174,-76609.549800
26190.595630,-2960.823768,1036.288319,-73545.167808
26190.598219,1924.535449,1184.329507,-74924.139704
26190.600808,19837.519246,-444.123565,-76762.768900
26190.603397,4589.276840,-3404.947333,-75996.673402
26190.605986,740.205942,148.041188,-75537.016103
26190.608575,2368.659014,2812.782580,-76303.111601
26190.611164,-1924.535449,7402.059420,-74770.920605
26190.613753,8438.347739,9770.718434,-74311.263306
26190.616342,6217.729913,8586.388927,-74770.920605
26190.618931,8882.471304,3997.112087,-75537.016103
26190.621520,4737.318029,296.082377,-75383.797003
26190.624109,1924.535449,-4293.194464,-76149.892501
26190.626698,4589.276840,3256.906145,-75843.454302
26190.629287,1776.494261,10214.842000,-74617.701505
26190.631876,7550.100608,7846.182985,-74158.044206
26190.634465,3108.864956,4145.153275,-73851.606007
26190.637054,9474.636058,2220.617826,-74617.701505
26190.639643,2220.617826,2812.782580,-75077.358804
26190.642232,10955.047942,-1036.288319,-76456.330700
26190.644821,-740.205942,148.041188,-75077.358804
26190.647410,10066.800811,-1480.411884,-76303.111601
26190.649999,-5773.606348,7105.977043,-74924.139704
26190.652586,6809.894666,9178.553681,-74311.263306
26190.655173,9178.553681,6513.812290,-75996.673402
26190.657760,8586.388927,1480.411884,-76456.330700
26190.660347,-4441.235652,2220.617826,-74311.263306
26190.662934,17172.777854,148.041188,-76915.987999
26190.665521,-7105.977043,-592.164754,-75537.016103
26190.668108,-18357.107362,16728.654289,-74464.482406
26190.670695,16432.571912,14508.036463,-76149.892501
26190.673282,-12139.377449,15544.324782,-74617.701505
26190.675869,17616.901420,9178.553681,-74770.920605
26190.678456,-4589.276840,5329.482782,-75537.016103
26190.681043,-3404.947333,5773.606348,-75230.577904
26190.683630,-6661.853478,3552.988522,-76303.111601
26190.686217,-1628.453072,5773.606348,-77222.426198
26190.688804,2960.823768,8882.471304,-74617.701505
26190.691391,6661.853478,12287.418637,-74158.044206
26190.693978,-2072.576638,11399.171507,-75230.577904
26190.696565,-7550.100608,12287.418637,-73851.606007
26190.699152,592.164754,3404.947333,-75843.454302
26190.701739,-8290.306550,9030.512492,-72932.291410
26190.704326,10807.006753,7698.141797,-75843.454302
26190.706913,-4441.235652,9474.636058,-77222.426198
26190.709500,3552.988522,8882.471304,-74311.263306
26190.712087,-10955.047942,9326.594869,-72779.072310
26190.714674,0.000000,9030.512492,-75996.673402
26190.717261,-3552.988522,15544.324782,-75537.016103
26190.719848,6069.688724,15544.324782,-75690.235202
26190.722435,-6069.688724,13915.871710,-74158.044206
26190.725022,4145.153275,7698.141797,-75077.358804
26190.727609,-1036.288319,2812.782580,-74311.263306
26190.730196,-148.041188,5625.565159,-74617.701505
26190.732783,-8142.265362,13027.624579,-76149.892501
26190.735370,18209.066173,7846.182985,-78141.740796
26190.737957,-3997.112087,1924.535449,-74004.825107
26190.740545,7550.100608,444.123565,-75383.797003
26190.743132,17616.901420,-1628.453072,-76915.987999
26190.745719,4589.276840,-3701.029710,-75996.673402
26190.748306,2516.700203,740.205942,-75843.454302
26190.750893,592.164754,5477.523971,-76303.111601
26190.753480,-444.123565,8882.471304,-73698.386908
26190.756065,6217.729913,10214.842000,-74311.263306
26190.758651,9030.512492,6069.688724,-75077.358804
26190.761236,6365.771101,4737.318029,-75230.577904
26190.763821,6809.894666,-444.123565,-74311.263306
26190.766407,3552.988522,-2220.617826,-75537.016103
26190.768992,-4145.153275,6513.812290,-73545.167808
26190.771578,6365.771101,9326.594869,-75230.577904
26190.774163,1184.329507,5921.647536,-75537.016103
26190.776749,12435.459826,3256.906145,-74004.825107
26190.779334,148.041188,2664.741391,-75230.577904
26190.781920,15544.324782,-1776.494261,-78448.178995
26190.784505,-4293.194464,740.205942,-74311.263306
26190.787091,12435.459826,-2072.576638,-76609.549800
26190.789676,-10362.883188,4589.276840,-75537.016103
26190.792262,11843.295072,7698.141797,-74770.920605
26190.794847,7254.018232,8882.471304,-73698.386908
26190.797433,11843.295072,2960.823768,-75690.235202
26190.800018,-3997.112087,4589.276840,-75383.797003
26190.802603,8290.306550,2516.700203,-76149.892501
26190.805189,8882.471304,-888.247130,-76303.111601
26190.807774,-36862.255912,7254.018232,-74311.263306
26190.810360,19689.478057,11991.336260,-76149.892501
26190.812945,-14804.118840,21169.889941,-72625.853210
26190.815531,19097.313304,12139.377449,-75077.358804
26190.818116,-5773.606348,10510.924376,-74770.920605
26190.820702,1480.411884,7105.977043,-75230.577904
26190.823287,-7105.977043,6809.894666,-74770.920605
26190.825873,-6513.812290,4885.359217,-76456.330700
26190.828458,1184.329507,5625.565159,-76303.111601
26190.831044,5477.523971,10362.883188,-74617.701505
26190.833629,6513.812290,12287.418637,-74311.263306
26190.836214,-2220.617826,9178.553681,-75230.577904
26190.838800,-10807.006753,8882.471304,-73851.606007
26190.841385,6661.853478,4589.276840,-74924.139704
26190.843971,-9178.553681,9474.636058,-72932.291410
26190.846556,7846.182985,9474.636058,-76915.987999
26190.849142,-2960.823768,10807.006753,-76149.892501
26190.851727,-1332.370696,7698.141797,-74311.263306
26190.854313,-5625.565159,9178.553681,-72932.291410
26190.856898,0.000000,13175.665768,-76149.892501
26190.859483,1480.411884,15692.365970,-75690.235202
26190.862067,-3997.112087,16728.654289,-74617.701505
26190.864651,4589.276840,9770.718434,-75077.358804
26190.867236,148.041188,1924.535449,-76303.111601
26190.869820,-5329.482782,3404.947333,-75077.358804
26190.872404,-7254.018232,12139.377449,-74617.701505
26190.874989,13619.789333,7402.059420,-78141.740796
26190.877573,-9474.636058,2960.823768,-73391.948708
26190.880157,19393.395680,2368.659014,-74770.920605
26190.882742,11843.295072,0.000000,-76303.111601
26190.885326,2664.741391,-3256.906145,-76456.330700
26190.887910,2368.659014,1480.411884,-75843.454302
26190.890495,-1628.453072,2960.823768,-76915.987999
26190.893079,0.000000,8438.347739,-74924.139704
26190.895663,8734.430116,9030.512492,-74311.263306
26190.898248,10807.006753,6957.935855,-75230.577904
26190.900832,8438.347739,4145.153275,-74770.920605
26190.903416,4293.194464,-1332.370696,-76149.892501
26190.906001,2516.700203,-1924.535449,-77835.302597
26190.908585,-3108.864956,7846.182985,-74311.263306
26190.911169,7994.224174,5477.523971,-77069.207099
26190.913754,3849.070898,5625.565159,-75996.673402
26190.916338,8734.430116,2960.823768,-73545.167808
26190.918923,5625.565159,888.247130,-76303.111601
26190.921507,1184.329507,148.041188,-77222.426198
26190.924091,7550.100608,-148.041188,-76303.111601
26190.926676,-3256.906145,2220.617826,-75996.673402
26190.929260,5625.565159,5181.441594,-75996.673402
26190.931844,2812.782580,9178.553681,-73851.606007
26190.934429,16876.695478,3849.070898,-74770.920605
26190.937013,-2516.700203,2960.823768,-74617.701505
26190.939597,5033.400406,3701.029710,-76915.987999
26190.942182,7698.141797,2812.782580,-76915.987999
26190.944766,-20577.725188,3108.864956,-74004.825107
26190.947350,2072.576638,17024.736666,-74464.482406
26190.949935,-4293.194464,18949.272115,-73851.606007
26190.952519,-4885.359217,15248.242405,-73391.948708
26190.955103,13915.871710,9030.512492,-74617.701505
26190.957688,-8290.306550,6809.894666,-75690.235202
26190.960272,-2072.576638,7254.018232,-74924.139704
26190.962854,-6513.812290,5181.441594,-75843.454302
26190.965436,2368.659014,6661.853478,-75843.454302
26190.968017,3849.070898,9178.553681,-74158.044206
26190.970599,-740.205942,10807.006753,-74464.482406
26190.973181,-888.247130,10658.965565,-75077.358804
26190.975763,-2960.823768,10066.800811,-74924.139704
26190.978345,-4293.194464,4589.276840,-74311.263306
26190.980926,-4589.276840,7254.018232,-74004.825107
26190.983508,-3108.864956,11103.089130,-75537.016103
26190.986090,4293.194464,9770.718434,-76609.549800
26190.988672,-5033.400406,9770.718434,-74770.920605
26190.991254,-2664.741391,9178.553681,-73698.386908
26190.993835,-2812.782580,12583.501014,-74464.482406
26190.996417,-1036.288319,13471.748144,-75843.454302
26190.998999,-2220.617826,17616.901420,-74464.482406
26191.001581,5477.523971,10807.006753,-74770.920605
26191.004163,2960.823768,2220.617826,-75690.235202
26191.006744,-6957.935855,4293.194464,-74464.482406
26191.009326,-5625.565159,11399.171507,-75537.016103
26191.011908,14359.995275,4885.359217,-77222.426198
26191.014490,-6365.771101,1184.329507,-74158.044206
26191.017072,13767.830521,1628.453072,-75077.358804
26191.019653,18653.189738,-1184.329507,-76762.768900
26191.022235,1924.535449,-2516.700203,-75690.235202
26191.024817,5625.565159,-148.041188,-76915.987999
26191.027399,-4737.318029,6217.729913,-75383.797003
26191.029981,-888.247130,8290.306550,-75077.358804
26191.032562,7550.100608,10214.842000,-73238.729609
26191.035144,11695.253884,5773.606348,-74158.044206
26191.037726,7994.224174,3997.112087,-74770.920605
26191.040308,10362.883188,592.164754,-76149.892501
26191.042890,-7402.059420,2368.659014,-75843.454302
26191.045471,3701.029710,6069.688724,-74770.920605
26191.048053,5477.523971,5921.647536,-75843.454302
26191.050635,2664.741391,3256.906145,-74158.044206
26191.053217,13175.665768,888.247130,-73545.167808
26191.055799,740.205942,-740.205942,-75230.577904
26191.058380,11843.295072,888.247130,-76609.549800
26191.060962,-4293.194464,1628.453072,-75383.797003
26191.063544,7254.018232,4145.153275,-76915.987999
26191.066124,-3108.864956,5773.606348,-75230.577904
26191.068704,22798.343014,3701.029710,-74004.825107
26191.071285,148.041188,2960.823768,-73851.606007
26191.073865,-2072.576638,2220.617826,-75843.454302
26191.076445,10510.924376,6069.688724,-76609.549800
26191.079026,3997.112087,592.164754,-75996.673402
26191.081606,-36566.173535,11843.295072,-74770.920605
26191.084186,27683.702231,10658.965565,-77222.426198
26191.086766,-14508.036463,13027.624579,-74770.920605
26191.089347,22650.301825,7994.224174,-75230.577904
26191.091927,-10362.883188,8438.347739,-74464.482406
26191.094507,0.000000,7254.018232,-76609.549800
26191.097087,-10510.924376,6809.894666,-75537.016103
26191.099668,-5921.647536,9030.512492,-74924.139704
26191.102248,-148.041188,9178.553681,-75077.358804
26191.104828,9178.553681,10955.047942,-74004.825107
26191.107408,-2220.617826,11251.130318,-74617.701505
26191.109989,-4145.153275,10214.842000,-75077.358804
26191.112569,-4737.318029,4441.235652,-76303.111601
26191.115149,-4293.194464,7254.018232,-74158.044206
26191.117729,-444.123565,10658.965565,-75230.577904
26191.120310,4589.276840,9474.636058,-76762.768900
26191.122890,-2664.741391,9178.553681,-75077.358804
26191.125470,-1480.411884,7846.182985,-74158.044206
26191.128050,-4293.194464,11843.295072,-75077.358804
26191.130631,-3552.988522,15396.283594,-75690.235202
26191.133211,-2516.700203,18209.066173,-74617.701505
26191.135791,3108.864956,13767.830521,-74464.482406
26191.138371,4441.235652,2664.741391,-74617.701505
26191.140952,-11843.295072,3701.029710,-75077.358804
26191.143532,1776.494261,12287.418637,-74924.139704
26191.146112,9326.594869,1924.535449,-76456.330700
26191.148692,-10807.006753,3404.947333,-74617.701505
26191.151271,26647.413912,592.164754,-75690.235202
26191.153851,6365.771101,1036.288319,-74924.139704
26191.156431,5181.441594,-2072.576638,-75690.235202
26191.159010,2960.823768,1184.329507,-76303.111601
26191.161590,-5181.441594,7254.018232,-76303.111601
26191.164170,5625.565159,8882.471304,-74617.701505
26191.166749,3997.112087,8438.347739,-74464.482406
26191.169329,12879.583391,4737.318029,-75537.016103
26191.171908,3849.070898,1628.453072,-73851.606007
26191.174488,11547.212695,-1036.288319,-75690.235202
26191.177068,-8438.347739,2220.617826,-75230.577904
26191.179647,11547.212695,9030.512492,-76303.111601
26191.182227,-3701.029710,6365.771101,-76303.111601
26191.184807,17468.860231,1924.535449,-74770.920605
26191.187386,1332.370696,1332.370696,-73698.386908
26191.189966,8882.471304,-888.247130,-76303.111601
26191.192545,2368.659014,1332.370696,-76609.549800
26191.195125,-1628.453072,2960.823768,-74617.701505
26191.197705,1332.370696,5477.523971,-75996.673402
26191.200284,8734.430116,4441.235652,-75996.673402
26191.202864,16876.695478,3404.947333,-73851.606007
26191.205444,-740.205942,2072.576638,-74770.920605
26191.208023,-148.041188,4145.153275,-77222.426198
26191.210603,19541.436869,1332.370696,-77375.645298
26191.213182,-36862.255912,5921.647536,-72932.291410
26191.215762,13767.830521,14804.118840,-75537.016103
26191.218342,-12139.377449,21169.889941,-71859.757712
26191.220921,13027.624579,14804.118840,-73085.510509
26191.223501,8142.265362,9030.512492,-74311.263306
26191.226081,-3552.988522,6513.812290,-75383.797003
26191.228660,-3108.864956,5625.565159,-75077.358804
26191.231240,-9770.718434,7105.977043,-76915.987999
26191.233819,1036.288319,6513.812290,-77222.426198
26191.236399,3849.070898,9622.677246,-74311.263306
26191.238979,1332.370696,10658.965565,-74158.044206
26191.241558,-5921.647536,9030.512492,-74924.139704
26191.244138,-1184.329507,5773.606348,-76149.892501
26191.246718,-9178.553681,7994.224174,-74617.701505
26191.249297,-2368.659014,9326.594869,-74770.920605
26191.251873,2812.782580,10214.842000,-75230.577904
26191.254450,2812.782580,8586.388927,-75383.797003
26191.257027,-1036.288319,8586.388927,-73238.729609
26191.259605,-2516.700203,10955.047942,-73238.729609
26191.262182,-5329.482782,16728.654289,-75383.797003
26191.264759,-3997.112087,17320.819043,-75230.577904
26191.267337,2516.700203,14656.077652,-73851.606007
26191.269914,10214.842000,3701.029710,-75230.577904
26191.272491,-13027.624579,2072.576638,-74311.263306
26191.275068,1628.453072,10807.006753,-74924.139704
26191.277646,8734.430116,3997.112087,-76456.330700
26191.280223,-11843.295072,2960.823768,-74158.044206
26191.282800,27979.784608,-296.082377,-76609.549800
26191.285378,4737.318029,444.123565,-75383.797003
26191.287955,6513.812290,-2072.576638,-74617.701505
26191.290532,-1480.411884,1184.329507,-76149.892501
26191.293110,-2368.659014,5625.565159,-76915.987999
26191.295687,1924.535449,9918.759623,-74158.044206
26191.298264,8142.265362,7698.141797,-75383.797003
26191.300842,8438.347739,5625.565159,-74924.139704
26191.303419,3849.070898,888.247130,-74924.139704
26191.305996,8142.265362,-3256.906145,-76149.892501
26191.308574,-4589.276840,4589.276840,-76609.549800
26191.311151,5181.441594,5921.647536,-77069.207099
26191.313728,1924.535449,7550.100608,-75383.797003
26191.316306,15988.448347,592.164754,-74617.701505
26191.318883,2368.659014,148.041188,-74617.701505
26191.321460,5625.565159,-1924.535449,-76915.987999
26191.324037,4737.318029,2072.576638,-75690.235202
26191.326615,-1628.453072,5181.441594,-75537.016103
26191.329192,1184.329507,6957.935855,-75996.673402
26191.331769,16728.654289,2368.659014,-76456.330700
26191.334347,7254.018232,1184.329507,-74004.825107
26191.336924,1924.535449,2516.700203,-74158.044206
26191.339501,7254.018232,4589.276840,-77069.207099
26191.342079,7105.977043,1332.370696,-77682.083497
26191.344656,-24870.919651,16580.613101,-73085.510509
26191.347233,21465.972318,13323.706956,-77375.645298
26191.349811,-13915.871710,15248.242405,-74924.139704
26191.352388,16876.695478,10510.924376,-75077.358804
26191.354964,-444.123565,6513.812290,-73851.606007
26191.357540,-2220.617826,4441.235652,-75537.016103
26191.360115,-9030.512492,6957.935855,-75230.577904
26191.362691,-11251.130318,9474.636058,-76149.892501
26191.365267,3701.029710,11843.295072,-74311.263306
26191.367843,4145.153275,10658.965565,-73545.167808
26191.370419,9030.512492,7698.141797,-73391.948708
26191.372995,-11695.253884,7846.182985,-74004.825107
26191.375571,5773.606348,6217.729913,-75537.016103
26191.378146,-19985.560434,8734.430116,-74770.920605
26191.380722,9622.677246,9474.636058,-75843.454302
26191.383298,-4293.194464,9178.553681,-75230.577904
26191.385874,9326.594869,6809.894666,-75077.358804
26191.388450,-4589.276840,12287.418637,-72166.195912
26191.391026,-6513.812290,14063.912898,-74617.701505
26191.393602,-5181.441594,19245.354492,-75690.235202
26191.396177,-3256.906145,16580.613101,-74770.920605
26191.398753,11103.089130,8438.347739,-74464.482406
26191.401329,-888.247130,1332.370696,-74924.139704
26191.403905,-10658.965565,8734.430116,-75537.016103
26191.406481,12139.377449,5625.565159,-75843.454302
26191.409057,-12287.418637,2072.576638,-74311.263306
26191.411632,15248.242405,-148.041188,-77375.645298
26191.414208,18505.148550,-444.123565,-76609.549800
26191.416784,4885.359217,-2664.741391,-74924.139704
26191.419360,-2516.700203,1036.288319,-75537.016103
26191.421936,5329.482782,3701.029710,-76609.549800
26191.424512,-6513.812290,7994.224174,-75537.016103
26191.427088,8290.306550,9622.677246,-74924.139704
26191.429663,7550.100608,5625.565159,-75230.577904
26191.432239,7105.977043,1184.329507,-75383.797003
26191.434815,12139.377449,-296.082377,-74770.920605
26191.437391,-7698.141797,0.000000,-75230.577904
26191.439967,11399.171507,6217.729913,-76149.892501
26191.442543,-4589.276840,8586.388927,-76149.892501
26191.445119,17172.777854,2072.576638,-75996.673402
26191.447694,2072.576638,740.205942,-73238.729609
26191.450270,9326.594869,-2812.782580,-76456.330700
26191.452846,1184.329507,2220.617826,-76303.111601
26191.455422,3997.112087,4885.359217,-75690.235202
26191.457997,-3256.906145,7550.100608,-75383.797003
26191.460571,20873.807564,1036.288319,-76762.768900
26191.463146,1480.411884,1036.288319,-73698.386908
26191.465721,3256.906145,2072.576638,-74158.044206
26191.468296,7994.224174,6513.812290,-77375.645298
26191.470870,-11695.253884,1924.535449,-75230.577904
26191.473445,-17912.983796,19837.519246,-74004.825107
26191.476020,18061.024985,14359.995275,-76609.549800
26191.478594,-14952.160028,13027.624579,-75996.673402
26191.481169,15988.448347,7402.059420,-75383.797003
26191.483744,-2368.659014,6217.729913,-73238.729609
26191.486319,-5477.523971,5181.441594,-75383.797003
26191.488893,-7402.059420,7994.224174,-74464.482406
26191.491468,-8290.306550,11251.130318,-75537.016103
26191.494043,8586.388927,11547.212695,-74004.825107
26191.496618,1036.288319,11103.089130,-74464.482406
26191.499192,9326.594869,5329.482782,-75843.454302
26191.501767,-19393.395680,8438.347739,-75843.454302
26191.504342,11103.089130,4441.235652,-76456.330700
26191.506917,-23242.466579,10066.800811,-75843.454302
26191.509491,16580.613101,11399.171507,-75230.577904
26191.512066,-5033.400406,9918.759623,-75383.797003
26191.514641,2516.700203,8438.347739,-74158.044206
26191.517215,-2812.782580,11399.171507,-73085.510509
26191.519790,-9622.677246,17024.736666,-75383.797003
26191.522365,-1184.329507,17172.777854,-75996.673402
26191.524940,-444.123565,14952.160028,-74158.044206
26191.527514,12435.459826,3552.988522,-75383.797003
26191.530089,-18209.066173,3552.988522,-75230.577904
26191.532664,19245.354492,7846.182985,-76609.549800
26191.535239,-2220.617826,1184.329507,-75077.358804
26191.537813,-12583.501014,4293.194464,-74158.044206
26191.540388,33309.267390,-1480.411884,-77988.521696
26191.542963,4589.276840,-2220.617826,-75537.016103
26191.545537,-2220.617826,-592.164754,-74311.263306
26191.548112,7994.224174,0.000000,-77682.083497
26191.550687,-6661.853478,7994.224174,-75843.454302
26191.553262,9030.512492,10066.800811,-74004.825107
26191.555836,1924.535449,8882.471304,-75383.797003
26191.558411,15248.242405,3701.029710,-75843.454302
26191.560984,3997.112087,2516.700203,-74311.263306
26191.563557,-740.205942,-444.123565,-74770.920605
26191.566130,3701.029710,4293.194464,-76762.768900
26191.568703,-296.082377,9622.677246,-75690.235202
26191.571276,13767.830521,2664.741391,-75996.673402
26191.573849,2368.659014,444.123565,-73851.606007
26191.576422,9326.594869,-1924.535449,-76609.549800
26191.578995,-740.205942,296.082377,-77222.426198
26191.581568,9770.718434,3552.988522,-76149.892501
26191.584141,-444.123565,6809.894666,-75230.577904
26191.586714,18061.024985,0.000000,-76762.768900
26191.589287,1184.329507,296.082377,-73391.948708
26191.591860,148.041188,2072.576638,-74004.825107
26191.594433,16432.571912,5773.606348,-75996.673402
26191.597006,-7402.059420,1628.453072,-75996.673402
26191.599579,-22058.137072,19245.354492,-74004.825107
26191.602152,22946.384202,14359.995275,-76303.111601
26191.604725,-11103.089130,14656.077652,-74617.701505
26191.607297,14359.995275,5921.647536,-75690.235202
26191.609870,-6365.771101,4293.194464,-74004.825107
26191.612443,740.205942,6069.688724,-74464.482406
26191.615016,-10807.006753,6513.812290,-75230.577904
26191.617589,-9474.636058,9918.759623,-75230.577904
26191.620162,5329.482782,11991.336260,-73698.386908
26191.622735,2368.659014,12583.501014,-73545.167808
26191.625308,2516.700203,4589.276840,-74311.263306
26191.627881,-2516.700203,5921.647536,-74770.920605
26191.630454,-6365.771101,7698.141797,-73545.167808
26191.633027,-3108.864956,8734.430116,-75537.016103
26191.635600,1776.494261,12287.418637,-75230.577904
26191.638173,2812.782580,7846.182985,-74617.701505
26191.640746,-3849.070898,9918.759623,-73085.510509
26191.643319,888.247130,11103.089130,-73851.606007
26191.645892,-6217.729913,18357.107362,-74924.139704
26191.648465,-3552.988522,16728.654289,-75230.577904
26191.651038,5921.647536,10066.800811,-74004.825107
26191.653611,1036.288319,3256.906145,-74311.263306
26191.656184,-11695.253884,7846.182985,-76609.549800
26191.658757,25907.207970,1924.535449,-76762.768900
26191.661330,-14952.160028,-888.247130,-74311.263306
26191.663902,6513.812290,1332.370696,-76149.892501
26191.666473,24426.796086,444.123565,-76762.768900
26191.669045,-592.164754,-1924.535449,-74924.139704
26191.671617,11399.171507,1036.288319,-75996.673402
26191.674189,-4145.153275,3701.029710,-75843.454302
26191.676760,148.041188,8438.347739,-74924.139704
26191.679332,6957.935855,10510.924376,-74464.482406
26191.681904,8142.265362,7254.018232,-75690.235202
26191.684476,3701.029710,1480.411884,-75996.673402
26191.687047,12287.418637,-1036.288319,-75537.016103
26191.689619,-3997.112087,3404.947333,-75383.797003
26191.692191,6513.812290,6217.729913,-75996.673402
26191.694763,3404.947333,6513.812290,-76456.330700
26191.697334,13027.624579,740.205942,-75077.358804
26191.699906,1924.535449,0.000000,-74311.263306
26191.702478,4441.235652,-1184.329507,-76762.768900
26191.705050,5921.647536,3997.112087,-76915.987999
26191.707621,-1776.494261,7846.182985,-74770.920605
26191.710193,19541.436869,1480.411884,-76762.768900
26191.712765,-740.205942,-592.164754,-75690.235202
26191.715337,6069.688724,296.082377,-74311.263306
26191.717908,1628.453072,5921.647536,-75077.358804
26191.720480,13767.830521,888.247130,-77222.426198
26191.723052,-42191.738694,13323.706956,-74464.482406
26191.725624,23538.548956,13767.830521,-76303.111601
26191.728195,-17764.942608,20281.642811,-72625.853210
26191.730767,18061.024985,9918.759623,-75690.235202
26191.733339,2072.576638,7846.182985,-74464.482406
26191.735911,-4293.194464,6217.729913,-74464.482406
26191.738482,-8290.306550,6217.729913,-75383.797003
26191.741054,-10807.006753,7994.224174,-77375.645298
26191.743626,1776.494261,11399.171507,-74770.920605
26191.746198,3552.988522,11843.295072,-74770.920605
26191.748769,6809.894666,8734.430116,-75537.016103
26191.751341,-2516.700203,5329.482782,-74311.263306
26191.753913,-2072.576638,6957.935855,-72472.634111
26191.756485,-3404.947333,7994.224174,-75383.797003
26191.759056,-1480.411884,13323.706956,-75537.016103
26191.761628,1184.329507,8882.471304,-75230.577904
26191.764200,-296.082377,10214.842000,-73851.606007
26191.766770,-2664.741391,11695.253884,-73391.948708
26191.769340,-6513.812290,17616.901420,-74617.701505
26191.771910,-9178.553681,16728.654289,-75383.797003
26191.774479,9622.677246,10510.924376,-74464.482406
26191.777049,-4737.318029,5033.400406,-73698.386908
26191.779619,-4145.153275,8734.430116,-76303.111601
26191.782189,19837.519246,2516.700203,-77222.426198
26191.784759,-11695.253884,-1628.453072,-73851.606007
26191.787329,6957.935855,888.247130,-76303.111601
26191.789899,23982.672521,-1184.329507,-77988.521696
26191.792469,-4885.359217,-444.123565,-74158.044206
26191.795039,13619.789333,2516.700203,-75383.797003
26191.797609,-5181.441594,5625.565159,-75230.577904
26191.800178,1776.494261,8734.430116,-74924.139704
26191.802748,3701.029710,9326.594869,-74770.920605
26191.805318,6513.812290,5477.523971,-75843.454302
26191.807888,6809.894666,2368.659014,-74311.263306
26191.810458,10510.924376,-1184.329507,-75230.577904
26191.813028,6217.729913,4441.235652,-75843.454302
26191.815598,-888.247130,6365.771101,-76762.768900
26191.818168,5477.523971,4145.153275,-76456.330700
26191.820738,5921.647536,1628.453072,-74770.920605
26191.823307,9030.512492,-1480.411884,-75383.797003
26191.825877,-2960.823768,1776.494261,-76149.892501
26191.828447,9474.636058,2812.782580,-76915.987999
26191.831017,-1036.288319,6217.729913,-75537.016103
26191.833587,14063.912898,-148.041188,-76303.111601
26191.836157,-888.247130,296.082377,-75690.235202
26191.838727,1776.494261,3552.988522,-74924.139704
26191.841297,19393.395680,4441.235652,-75690.235202
26191.843867,-18801.230927,4737.318029,-75077.358804
26191.846437,-7402.059420,21169.889941,-74617.701505
26191.849006,7698.141797,17764.942608,-74924.139704
26191.851576,-15544.324782,13767.830521,-75077.358804
26191.854146,15692.365970,8290.306550,-74464.482406
26191.856716,-4885.359217,4885.359217,-75230.577904
26191.859286,0.000000,6069.688724,-75383.797003
26191.861856,-8586.388927,7846.182985,-75843.454302
26191.864426,-5921.647536,9178.553681,-76456.330700
26191.866996,5477.523971,11991.336260,-74004.825107
26191.869565,6069.688724,12287.418637,-73238.729609
26191.872133,-5773.606348,7846.182985,-74158.044206
26191.874702,9918.759623,4885.359217,-75077.358804
26191.877271,-16284.530724,9030.512492,-74617.701505
26191.879840,3701.029710,11547.212695,-74004.825107
26191.882409,-2812.782580,8734.430116,-75690.235202
26191.884978,4885.359217,9770.718434,-73698.386908
26191.887546,-1776.494261,10955.047942,-72472.634111
26191.890115,-6809.894666,15840.407159,-74004.825107
26191.892684,-740.205942,17764.942608,-75230.577904
26191.895253,-2072.576638,13175.665768,-74924.139704
26191.897822,740.205942,6217.729913,-73698.386908
26191.900391,-11695.253884,9326.594869,-75077.358804
26191.902960,25611.125593,3552.988522,-78141.740796
26191.905528,-10658.965565,-1924.535449,-74617.701505
26191.908097,-2664.741391,1776.494261,-74311.263306
26191.910666,27091.537477,-2812.782580,-77682.083497
26191.913235,2516.700203,-2516.700203,-76762.768900
26191.915804,-3552.988522,888.247130,-74464.482406
26191.918373,2960.823768,3701.029710,-75996.673402
26191.920941,-1924.535449,8290.306550,-75077.358804
26191.923510,10362.883188,8142.265362,-75077.358804
26191.926079,888.247130,7254.018232,-74924.139704
26191.928648,7994.224174,3108.864956,-75537.016103
26191.931217,8586.388927,-296.082377,-74770.920605
26191.933786,-888.247130,1924.535449,-74617.701505
26191.936354,5921.647536,5033.400406,-75690.235202
26191.938923,6661.853478,3701.029710,-77682.083497
26191.941492,4441.235652,1184.329507,-74311.263306
26191.944061,9326.594869,-740.205942,-73851.606007
26191.946630,-1628.453072,2516.700203,-76149.892501
26191.949199,8882.471304,2664.741391,-76456.330700
26191.951768,1184.329507,6069.688724,-75077.358804
26191.954336,20133.601622,-2368.659014,-75383.797003
26191.956905,-6957.935855,-148.041188,-74924.139704
26191.959474,10807.006753,6217.729913,-75690.235202
26191.962043,14656.077652,5329.482782,-76149.892501
26191.964612,-30644.525999,7698.141797,-74617.701505
26191.967181,3849.070898,17764.942608,-75690.235202
26191.969749,-10510.924376,20133.601622,-72779.072310
26191.972278,10955.047942,12583.501014,-72625.853210
26191.974806,7105.977043,8882.471304,-75383.797003
26191.977334,-296.082377,5181.441594,-75537.016103
26191.979862,888.247130,8438.347739,-75383.797003
26191.982391,-13175.665768,6217.729913,-76609.549800
26191.984919,-1332.370696,7846.182985,-75843.454302
26191.987447,-1036.288319,12287.418637,-73545.167808
26191.989975,9622.677246,9770.718434,-74311.263306
26191.992504,-888.247130,3849.070898,-76609.549800
26191.995032,1480.411884,8142.265362,-75230.577904
26191.997560,-7698.141797,9326.594869,-75230.577904
26192.000088,-2220.617826,11251.130318,-74924.139704
26192.002617,-1924.535449,9918.759623,-75230.577904
26192.005145,3108.864956,10214.842000,-74617.701505
26192.007673,-5477.523971,14656.077652,-73238.729609
26192.010201,2368.659014,16432.571912,-75383.797003
26192.012730,-5033.400406,14656.077652,-75843.454302
26192.015258,6069.688724,7698.141797,-75383.797003
26192.017786,-13471.748144,7846.182985,-73391.948708
26192.020314,8734.430116,10066.800811,-75537.016103
26192.022843,15544.324782,-592.164754,-76915.987999
26192.025371,-19393.395680,2664.741391,-73238.729609
26192.027899,36566.173535,2220.617826,-75537.016103
26192.030427,6661.853478,1036.288319,-75996.673402
26192.032956,-6217.729913,1480.411884,-74617.701505
26192.035484,11399.171507,1628.453072,-75690.235202
26192.038012,-8142.265362,6957.935855,-75383.797003
26192.040540,14508.036463,6809.894666,-75383.797003
26192.043068,-1776.494261,7846.182985,-75383.797003
26192.045597,15988.448347,3997.112087,-76303.111601
26192.048125,3701.029710,0.000000,-75843.454302
26192.050653,1036.288319,888.247130,-76303.111601
26192.053181,5921.647536,6365.771101,-75537.016103
26192.055710,3108.864956,5477.523971,-76303.111601
26192.058238,10807.006753,1036.288319,-76303.111601
26192.060766,2812.782580,-148.041188,-74464.482406
26192.063294,3552.988522,1480.411884,-76303.111601
26192.065823,7105.977043,1332.370696,-77528.864398
26192.068351,-148.041188,5477.523971,-76303.111601
26192.070879,17616.901420,-148.041188,-75843.454302
26192.073415,-3849.070898,-1332.370696,-75537.016103
26192.075950,2220.617826,3404.947333,-74617.701505
26192.078486,21614.013506,4885.359217,-75230.577904
26192.081021,-20725.766376,6957.935855,-74311.263306
26192.083557,-9326.594869,22650.301825,-75383.797003
26192.086092,7402.059420,18061.024985,-75383.797003
26192.088627,-15692.365970,12583.501014,-74311.263306
26192.091163,17024.736666,4441.235652,-75537.016103
26192.093698,-7846.182985,3404.947333,-75383.797003
26192.096234,1332.370696,7550.100608,-74924.139704
26192.098769,-7402.059420,7402.059420,-76609.549800
26192.101305,-9178.553681,10807.006753,-75843.454302
26192.103840,4441.235652,13175.665768,-73391.948708
26192.106376,5625.565159,10362.883188,-73698.386908
26192.108911,-1628.453072,3552.988522,-75230.577904
26192.111447,2516.700203,6513.812290,-74311.263306
26192.113982,-8734.430116,11103.089130,-75230.577904
26192.116518,-5033.400406,11103.089130,-77069.207099
26192.119053,-296.082377,10362.883188,-75383.797003
26192.121589,296.082377,10214.842000,-73545.167808
26192.124124,-1924.535449,14359.995275,-74158.044206
26192.126659,-1628.453072,17468.860231,-74770.920605
26192.129195,-1332.370696,14804.118840,-75383.797003
26192.131730,1036.288319,8290.306550,-75230.577904
26192.134266,-10807.006753,7550.100608,-74924.139704
26192.136801,12435.459826,9030.512492,-76149.892501
26192.139337,12731.542202,-740.205942,-75843.454302
26192.141872,-11991.336260,2812.782580,-72319.415011
26192.144408,35085.761651,-740.205942,-75690.235202
26192.146943,1184.329507,-296.082377,-75690.235202
26192.149479,-5329.482782,740.205942,-74464.482406
26192.152014,10214.842000,1332.370696,-76149.892501
26192.154550,-4737.318029,8290.306550,-74617.701505
26192.157085,18505.148550,6809.894666,-74770.920605
26192.159621,-3849.070898,6513.812290,-74924.139704
26192.162156,20281.642811,1924.535449,-76762.768900
26192.164691,-8142.265362,5181.441594,-73698.386908
26192.167227,11695.253884,-740.205942,-75843.454302
26192.169762,148.041188,7402.059420,-75537.016103
26192.172298,7698.141797,4441.235652,-76609.549800
26192.174840,12287.418637,444.123565,-74004.825107
26192.177382,-1184.329507,-148.041188,-73545.167808
26192.179924,11251.130318,1036.288319,-76609.549800
26192.182466,-592.164754,4737.318029,-76609.549800
26192.185008,12731.542202,2072.576638,-76149.892501
26192.187549,8882.471304,444.123565,-74924.139704
26192.190091,444.123565,-740.205942,-75230.577904
26192.192633,-888.247130,5181.441594,-75383.797003
26192.195175,8290.306550,4441.235652,-75077.358804
26192.197717,-41007.409187,15840.407159,-74311.263306
26192.200259,25759.166782,12879.583391,-77682.083497
26192.202801,-19541.436869,19837.519246,-72932.291410
26192.205343,13767.830521,11547.212695,-73085.510509
26192.207885,7254.018232,6957.935855,-75077.358804
26192.210427,-4737.318029,4737.318029,-75230.577904
26192.212969,3108.864956,8438.347739,-74924.139704
26192.215511,-16136.489536,10807.006753,-76915.987999
26192.218053,2368.659014,9918.759623,-75996.673402
26192.220594,-2812.782580,12583.501014,-73391.948708
26192.223136,10807.006753,4885.359217,-75690.235202
26192.225678,-5033.400406,5033.400406,-74464.482406
26192.228220,4589.276840,9770.718434,-74617.701505
26192.230762,-10066.800811,9918.759623,-76456.330700
26192.233304,-4885.359217,10658.965565,-75537.016103
26192.235846,-444.123565,8290.306550,-74924.139704
26192.238388,-2812.782580,14063.912898,-73698.386908
26192.240930,4293.194464,16728.654289,-74464.482406
26192.243472,-5477.523971,17912.983796,-74770.920605
26192.246014,3701.029710,8586.388927,-76303.111601
26192.248556,-13619.789333,7698.141797,-75077.358804
26192.251098,1480.411884,10214.842000,-75230.577904
26192.253639,16728.654289,1332.370696,-76456.330700
26192.256181,-9918.759623,-592.164754,-74311.263306
26192.258723,26351.331535,-1480.411884,-77069.207099
26192.261265,14211.954086,-1036.288319,-76149.892501
26192.263807,444.123565,-2368.659014,-76915.987999
26192.266349,7550.100608,3701.029710,-76303.111601
26192.268891,-4589.276840,7105.977043,-75230.577904
26192.271433,5477.523971,9178.553681,-74770.920605
26192.273975,6661.853478,5329.482782,-75383.797003
26192.276481,14804.118840,2072.576638,-76303.111601
26192.278991,-148.041188,2812.782580,-74770.920605
26192.281500,10066.800811,-2072.576638,-77835.302597
26192.284009,-5329.482782,6957.935855,-77069.207099
26192.286518,12139.377449,3997.112087,-78141.740796
26192.289028,-1036.288319,1480.411884,-76149.892501
26192.291537,10955.047942,-1480.411884,-74004.825107
26192.294046,3701.029710,1184.329507,-75383.797003
26192.296556,1480.411884,4885.359217,-75843.454302
26192.299065,12879.583391,1924.535449,-76609.549800
26192.301574,8586.388927,-148.041188,-74770.920605
26192.304083,-4293.194464,148.041188,-75077.358804
26192.306593,7846.182985,4885.359217,-76149.892501
26192.309102,16284.530724,3552.988522,-74770.920605
26192.311611,-43376.068201,13471.748144,-73391.948708
26192.314121,20873.807564,14656.077652,-77988.521696
26192.316630,9622.677246,16284.530724,-74311.263306
26192.319139,13323.706956,9030.512492,-73851.606007
26192.321649,9622.677246,4589.276840,-75537.016103
26192.324158,-10658.965565,5477.523971,-74770.920605
26192.326667,4145.153275,9326.594869,-74464.482406
26192.329176,-12879.583391,9178.553681,-77528.864398
26192.331686,-1184.329507,10807.006753,-76303.111601
26192.334195,-3404.947333,13915.871710,-74464.482406
26192.336704,13619.789333,4145.153275,-75077.358804
26192.339214,-8438.347739,4145.153275,-74924.139704
26192.341723,5329.482782,10658.965565,-74004.825107
26192.344232,-10955.047942,10510.924376,-76149.892501
26192.346741,-2516.700203,9918.759623,-75383.797003
26192.349251,-2960.823768,9770.718434,-74770.920605
26192.351760,-1036.288319,13915.871710,-73851.606007
26192.354269,3256.906145,17912.983796,-73238.729609
26192.356779,-444.123565,15840.407159,-75077.358804
26192.359288,-592.164754,7698.141797,-75383.797003
26192.361797,-15840.407159,10955.047942,-74617.701505
26192.364307,13471.748144,11251.130318,-75537.016103
26192.366816,11399.171507,-1184.329507,-75077.358804
26192.369325,296.082377,-2960.823768,-74617.701505
26192.371834,23686.590144,-3404.947333,-76303.111601
26192.374344,888.247130,-2516.700203,-75843.454302
26192.376865,-3701.029710,888.247130,-75996.673402
26192.379387,5477.523971,3997.112087,-77222.426198
26192.381908,-3701.029710,9326.594869,-74770.920605
26192.384429,16728.654289,7994.224174,-74158.044206
26192.386951,1332.370696,4885.359217,-75230.577904
26192.389472,8586.388927,2220.617826,-75383.797003
26192.391994,1628.453072,888.247130,-75537.016103
26192.394515,2960.823768,5033.400406,-75230.577904
26192.397037,5477.523971,6957.935855,-76149.892501
26192.399558,4589.276840,2516.700203,-76149.892501
26192.402080,5773.606348,-296.082377,-75077.358804
26192.404601,5625.565159,-740.205942,-74770.920605
26192.407122,3404.947333,2072.576638,-77375.645298
26192.409644,10955.047942,3256.906145,-75843.454302
26192.412165,9622.677246,-888.247130,-75843.454302
26192.414687,888.247130,-1184.329507,-74464.482406
26192.417208,-2220.617826,3701.029710,-75843.454302
26192.419730,24870.919651,2516.700203,-77222.426198
26192.422251,-35233.802839,9770.718434,-73085.510509
26192.424773,6513.812290,21169.889941,-75230.577904
26192.427294,-9770.718434,23242.466579,-73545.167808
26192.429815,7550.100608,13175.665768,-72779.072310
26192.432337,4293.194464,7994.224174,-73698.386908
26192.434858,2812.782580,1776.494261,-76762.768900
26192.437380,-2812.782580,9326.594869,-74770.920605
26192.439901,-1924.535449,6957.935855,-76456.330700
26192.442423,-8734.430116,11695.253884,-76303.111601
26192.444944,3849.070898,14063.912898,-74464.482406
26192.447465,-2516.700203,9178.553681,-73851.606007
26192.449987,12435.459826,1924.535449,-76303.111601
26192.452508,-8142.265362,10362.883188,-75077.358804
26192.455030,-4441.235652,12583.501014,-76303.111601
26192.457561,-6513.812290,12139.377449,-75537.016103
26192.460093,-3256.906145,9326.594869,-74924.139704
26192.462624,-296.082377,13767.830521,-74004.825107
26192.465156,1036.288319,15692.365970,-73698.386908
26192.467687,4737.318029,14804.118840,-74617.701505
26192.470219,-4885.359217,9622.677246,-75996.673402
26192.472751,-9918.759623,10807.006753,-75383.797003
26192.475282,3552.988522,9030.512492,-76149.892501
26192.477814,19837.519246,-1628.453072,-76762.768900
26192.480345,-10807.006753,2812.782580,-72779.072310
26192.482877,36418.132346,740.205942,-74617.701505
26192.485408,6513.812290,-2072.576638,-75537.016103
26192.487940,-4885.359217,-1036.288319,-75230.577904
26192.490471,7105.977043,4145.153275,-77222.426198
26192.493003,-7846.182985,8882.471304,-75383.797003
26192.495534,17468.860231,7550.100608,-74617.701505
26192.498066,2664.741391,4145.153275,-75537.016103
26192.500597,15988.448347,444.123565,-75996.673402
26192.503129,-2516.700203,888.247130,-74004.825107
26192.505661,7550.100608,3849.070898,-76303.111601
26192.508192,-6069.688724,8438.347739,-75690.235202
26192.510724,11251.130318,888.247130,-76915.987999
26192.513255,0.000000,-740.205942,-75537.016103
26192.515787,12879.583391,-740.205942,-75383.797003
26192.518318,444.123565,2072.576638,-76303.111601
26192.520850,11251.130318,2812.782580,-77222.426198
26192.523381,9474.636058,-444.123565,-74770.920605
26192.525913,-1924.535449,0.000000,-74464.482406
26192.528444,3849.070898,3256.906145,-75843.454302
26192.530976,7994.224174,4885.359217,-74770.920605
26192.533507,-40859.367998,14211.954086,-73238.729609
26192.536039,22650.301825,15544.324782,-77069.207099
26192.538571,-19245.354492,21614.013506,-74004.825107
26192.541102,7698.141797,12731.542202,-73545.167808
26192.543634,8734.430116,7254.018232,-74617.701505
26192.546165,148.041188,3701.029710,-75537.016103
26192.548697,-4441.235652,6217.729913,-75843.454302
26192.551228,-10362.883188,9622.677246,-75843.454302
26192.553760,-6957.935855,12139.377449,-75230.577904
26192.556291,9326.594869,11991.336260,-74004.825107
26192.558831,-4441.235652,5773.606348,-74311.263306
26192.561370,6661.853478,4293.194464,-74617.701505
26192.563910,-3256.906145,9918.759623,-75537.016103
26192.566450,-6809.894666,11991.336260,-75383.797003
26192.568989,-3108.864956,10066.800811,-76149.892501
26192.571529,-5773.606348,11695.253884,-73698.386908
26192.574068,4441.235652,15248.242405,-73085.510509
26192.576608,-888.247130,17468.860231,-74158.044206
26192.579147,2516.700203,12731.542202,-74311.263306
26192.581687,-3108.864956,9622.677246,-74770.920605
26192.584227,-18357.107362,10362.883188,-75843.454302
26192.586766,27683.702231,3552.988522,-76762.768900
26192.589306,-14508.036463,-4885.359217,-73391.948708
26192.591845,29164.114115,-5181.441594,-77375.645298
26192.594385,16728.654289,-5033.400406,-76762.768900
26192.596924,4145.153275,-5477.523971,-75996.673402
26192.599464,5329.482782,3701.029710,-76456.330700
26192.602004,3108.864956,6217.729913,-75077.358804
26192.604543,-1628.453072,12287.418637,-74770.920605
26192.607083,17616.901420,8142.265362,-75230.577904
26192.609622,-2516.700203,4737.318029,-74158.044206
26192.612162,8438.347739,-740.205942,-75230.577904
26192.614701,6069.688724,1036.288319,-76609.549800
26192.617241,-2812.782580,6809.894666,-76456.330700
26192.619781,10510.924376,4145.153275,-77682.083497
26192.622320,1332.370696,1776.494261,-74004.825107
26192.624860,13175.665768,-444.123565,-74004.825107
26192.627399,-1184.329507,0.000000,-75230.577904
26192.629939,11251.130318,-592.164754,-77682.083497
26192.632478,6513.812290,1332.370696,-75690.235202
26192.635018,2516.700203,-592.164754,-74617.701505
26192.637558,-2516.700203,4737.318029,-75230.577904
26192.640097,25907.207970,1184.329507,-77069.207099
26192.642637,-33013.185013,9326.594869,-71859.757712
26192.645176,5181.441594,22058.137072,-73851.606007
26192.647716,-2220.617826,23390.507767,-74004.825107
26192.650255,-17024.736666,13027.624579,-75537.016103
26192.652795,14952.160028,5773.606348,-73698.386908
26192.655335,-1776.494261,1628.453072,-75537.016103
26192.657874,-3404.947333,6365.771101,-75230.577904
26192.660414,-444.123565,7254.018232,-76762.768900
26192.662953,-10955.047942,14211.954086,-76762.768900
26192.665493,3256.906145,13323.706956,-75383.797003
26192.668032,7994.224174,7402.059420,-75383.797003
26192.670572,-9030.512492,5477.523971,-74464.482406
26192.673112,7846.182985,7402.059420,-74464.482406
26192.675651,-9474.636058,11103.089130,-76609.549800
26192.678191,-6365.771101,11399.171507,-75383.797003
26192.680737,-3108.864956,11843.295072,-74464.482406
26192.683283,-296.082377,14804.118840,-73545.167808
26192.685829,3256.906145,17024.736666,-73698.386908
26192.688376,4737.318029,14063.912898,-74770.920605
26192.690922,-7254.018232,9326.594869,-75077.358804
26192.693468,-11251.130318,14211.954086,-75230.577904
26192.696014,25463.084405,-444.123565,-77682.083497
26192.698561,-15840.407159,-4589.276840,-74158.044206
26192.701107,18801.230927,-5921.647536,-77222.426198
26192.703653,10510.924376,-2960.823768,-76609.549800
26192.706199,10955.047942,-3701.029710,-75383.797003
26192.708745,-10066.800811,2812.782580,-75690.235202
26192.711292,9178.553681,3701.029710,-76762.768900
26192.713838,-8142.265362,12139.377449,-74311.263306
26192.716384,14211.954086,7994.224174,-75383.797003
26192.718930,444.123565,2812.782580,-74617.701505
26192.721477,15248.242405,-888.247130,-74770.920605
26192.724023,-3701.029710,-1628.453072,-74464.482406
26192.726569,8882.471304,6217.729913,-75537.016103
26192.729115,-1036.288319,4441.235652,-76456.330700
26192.731662,9770.718434,2516.700203,-75996.673402
26192.734208,6069.688724,-740.205942,-73085.510509
26192.736754,5181.441594,-592.164754,-76303.111601
26192.739300,11547.212695,-740.205942,-76762.768900
26192.741846,9326.594869,-148.041188,-76149.892501
26192.744393,-2960.823768,1036.288319,-74924.139704
26192.746939,3404.947333,7846.182985,-74617.701505
26192.749485,21614.013506,888.247130,-76762.768900
26192.752031,-41303.491564,10807.006753,-71246.881314
26192.754578,16432.571912,19985.560434,-73851.606007
26192.757124,-23242.466579,22502.260637,-73545.167808
26192.759670,5477.523971,13619.789333,-74004.825107
26192.762222,9474.636058,7550.100608,-74158.044206
26192.764773,0.000000,1776.494261,-75996.673402
26192.767325,1924.535449,7550.100608,-75383.797003
26192.769876,-6809.894666,6513.812290,-77528.864398
26192.772427,-5477.523971,10214.842000,-77069.207099
26192.774979,-592.164754,15100.201217,-74311.263306
26192.777530,1332.370696,3404.947333,-74924.139704
26192.780082,-1924.535449,4145.153275,-75537.016103
26192.782633,2368.659014,11399.171507,-74924.139704
26192.785185,-2664.741391,9918.759623,-77069.207099
26192.787736,-9622.677246,13915.871710,-73698.386908
26192.790288,3997.112087,13619.789333,-73238.729609
26192.792839,-7698.141797,17468.860231,-72932.291410
26192.795391,13323.706956,13027.624579,-74924.139704
26192.797942,-7254.018232,11843.295072,-74158.044206
26192.800494,-6513.812290,12731.542202,-75230.577904
26192.803045,-5625.565159,10955.047942,-75996.673402
26192.805597,17320.819043,-2960.823768,-76609.549800
26192.808148,-13471.748144,1184.329507,-72472.634111
26192.810699,31088.649564,-2220.617826,-75690.235202
26192.813251,2812.782580,-2368.659014,-75843.454302
26192.815802,-6809.894666,-148.041188,-74617.701505
26192.818354,10362.883188,2516.700203,-76456.330700
26192.820905,-14359.995275,9622.677246,-74924.139704
26192.823457,18061.024985,9622.677246,-75537.016103
26192.826008,1628.453072,6365.771101,-75996.673402
26192.828560,14804.118840,148.041188,-76149.892501
26192.831111,3552.988522,-444.123565,-74464.482406
26192.833663,-3108.864956,4589.276840,-75996.673402
26192.836214,6217.729913,5329.482782,-78294.959896
26192.838766,1036.288319,3997.112087,-76456.330700
26192.841317,11991.336260,444.123565,-74617.701505
26192.843869,3256.906145,444.123565,-74311.263306
26192.846420,13471.748144,-1628.453072,-76609.549800
26192.848971,8142.265362,-1184.329507,-76915.987999
26192.851523,444.123565,-888.247130,-75230.577904
26192.854074,2220.617826,7254.018232,-75383.797003
26192.856626,18949.272115,2516.700203,-76762.768900
26192.859177,-36122.049970,10214.842000,-72319.415011
26192.861729,13915.871710,19245.354492,-73851.606007
26192.864285,-14952.160028,24574.837274,-72319.415011
26192.866841,-10066.800811,12879.583391,-74770.920605
26192.869397,8882.471304,8142.265362,-74924.139704
26192.871953,1184.329507,2812.782580,-75537.016103
26192.874510,-2220.617826,4885.359217,-76303.111601
26192.877066,-5773.606348,6217.729913,-76609.549800
26192.879622,-9178.553681,14063.912898,-74770.920605
26192.882178,5477.523971,12731.542202,-75077.358804
26192.884734,-740.205942,8586.388927,-75383.797003
26192.887290,-1480.411884,6217.729913,-74770.920605
26192.889847,3997.112087,7846.182985,-74770.920605
26192.892403,-11991.336260,12435.459826,-75383.797003
26192.894959,-3404.947333,10510.924376,-75230.577904
26192.897515,-7698.141797,16136.489536,-72779.072310
26192.900071,5329.482782,15544.324782,-74004.825107
26192.902627,2812.782580,15248.242405,-74004.825107
26192.905184,444.123565,11695.253884,-74158.044206
26192.907740,-8438.347739,13027.624579,-75077.358804
26192.910296,-4441.235652,12583.501014,-76149.892501
26192.912852,11695.253884,-4589.276840,-76149.892501
26192.915408,-2960.823768,296.082377,-73238.729609
26192.917964,28868.031738,-4737.318029,-77222.426198
26192.920521,10066.800811,-4737.318029,-76303.111601
26192.923077,1480.411884,-1332.370696,-75537.016103
26192.925633,6513.812290,4589.276840,-75996.673402
26192.928189,-8734.430116,9030.512492,-75077.358804
26192.930745,6365.771101,11547.212695,-73391.948708
26192.933301,3849.070898,5329.482782,-75843.454302
26192.935858,9030.512492,-148.041188,-75996.673402
26192.938414,7402.059420,1184.329507,-75230.577904
26192.940970,-2516.700203,3701.029710,-75383.797003
26192.943526,4737.318029,3849.070898,-77375.645298
26192.946082,3849.070898,4145.153275,-76149.892501
26192.948638,11251.130318,-1628.453072,-75077.358804
26192.951194,4441.235652,-592.164754,-74004.825107
26192.953751,14656.077652,-2960.823768,-77835.302597
26192.956307,3404.947333,-1332.370696,-75843.454302
26192.958863,296.082377,-592.164754,-75537.016103
26192.961419,3997.112087,7254.018232,-75077.358804
26192.963975,17616.901420,3108.864956,-77222.426198
26192.966535,-47077.097911,13471.748144,-72932.291410
26192.969096,24426.796086,17468.860231,-74770.920605
26192.971656,-24722.878463,24870.919651,-71859.757712
26192.974216,14359.995275,8882.471304,-75383.797003
26192.976776,4589.276840,7550.100608,-74158.044206
26192.979336,-740.205942,4441.235652,-74770.920605
26192.981896,148.041188,7254.018232,-75077.358804
26192.984456,-12287.418637,8290.306550,-75996.673402
26192.987016,-2516.700203,10066.800811,-75996.673402
26192.989577,592.164754,14656.077652,-73698.386908
26192.992137,296.082377,5477.523971,-75230.577904
26192.994697,2812.782580,5773.606348,-75383.797003
26192.997257,-444.123565,9474.636058,-76915.987999
26192.999817,-7698.141797,11547.212695,-76915.987999
26193.002377,-7402.059420,12731.542202,-75690.235202
26193.004937,-2220.617826,15248.242405,-73851.606007
26193.007497,2072.576638,15396.283594,-74004.825107
26193.010058,4145.153275,12731.542202,-75230.577904
26193.012618,-2516.700203,11695.253884,-74924.139704
26193.015178,-12731.542202,17172.777854,-75383.797003
26193.017738,22650.301825,-1332.370696,-78448.178995
26193.020298,-13915.871710,-5329.482782,-74158.044206
26193.022858,17468.860231,-6957.935855,-77222.426198
26193.025418,14359.995275,-5033.400406,-77069.207099
26193.027978,4589.276840,-2812.782580,-75230.577904
26193.030539,-3849.070898,4589.276840,-74004.825107
26193.033099,10955.047942,5625.565159,-76456.330700
26193.035659,-12287.418637,10362.883188,-74464.482406
26193.038219,24130.713709,8142.265362,-74770.920605
26193.040779,-4737.318029,6513.812290,-74464.482406
26193.043339,22650.301825,-1924.535449,-76303.111601
26193.045899,-7994.224174,296.082377,-74464.482406
26193.048459,7550.100608,3256.906145,-75996.673402
26193.051020,-296.082377,4145.153275,-76915.987999
26193.053580,6809.894666,1480.411884,-75690.235202
26193.056140,6365.771101,2812.782580,-75077.358804
26193.058700,11103.089130,-888.247130,-77375.645298
26193.061260,9770.718434,-3108.864956,-76915.987999
26193.063820,740.205942,-1924.535449,-75996.673402
26193.066380,-3404.947333,3997.112087,-74770.920605
26193.068943,23242.466579,2960.823768,-77069.207099
26193.071506,-27239.578666,7994.224174,-73698.386908
26193.074069,3849.070898,23834.631332,-74158.044206
26193.076633,888.247130,24130.713709,-73085.510509
26193.079196,-5773.606348,13471.748144,-74617.701505
26193.081759,9770.718434,5477.523971,-75383.797003
26193.084322,1776.494261,1184.329507,-75690.235202
26193.086885,-8142.265362,4885.359217,-75996.673402
26193.089448,7994.224174,5181.441594,-77835.302597
26193.092011,-17468.860231,13471.748144,-75383.797003
26193.094574,11991.336260,13915.871710,-74770.920605
26193.097137,-296.082377,10214.842000,-74770.920605
26193.099700,-5921.647536,6069.688724,-72932.291410
26193.102263,9178.553681,10066.800811,-73698.386908
26193.104826,-12435.459826,12287.418637,-75383.797003
26193.107389,-6809.894666,14508.036463,-74617.701505
26193.109952,-3108.864956,14508.036463,-73545.167808
26193.112515,1924.535449,17024.736666,-73698.386908
26193.115079,7550.100608,12139.377449,-74770.920605
26193.117642,-6069.688724,11991.336260,-74924.139704
26193.120205,-9622.677246,16580.613101,-75383.797003
26193.122768,18061.024985,-148.041188,-78448.178995
26193.125331,-5921.647536,-5181.441594,-74464.482406
26193.127894,12879.583391,-4737.318029,-75077.358804
26193.130457,20577.725188,-4589.276840,-76149.892501
26193.133020,3404.947333,-3108.864956,-75843.454302
26193.135583,-6809.894666,2368.659014,-74770.920605
26193.138146,14804.118840,5181.441594,-76762.768900
26193.140709,-9178.553681,9474.636058,-75383.797003
26193.143272,17172.777854,7402.059420,-74924.139704
26193.145835,6513.812290,3849.070898,-75230.577904
26193.148398,3552.988522,592.164754,-75843.454302
26193.150961,14063.912898,-444.123565,-75383.797003
26193.153525,-7105.977043,5477.523971,-75077.358804
26193.156088,7254.018232,-148.041188,-77835.302597
26193.158651,4145.153275,1924.535449,-75996.673402
26193.161214,6365.771101,2664.741391,-72779.072310
26193.163777,16728.654289,-1776.494261,-76762.768900
26193.166340,2960.823768,-2664.741391,-76149.892501
26193.168903,1480.411884,-3849.070898,-75996.673402
26193.171433,-1184.329507,5773.606348,-74311.263306
26193.173964,23094.425390,2368.659014,-76915.987999
26193.176494,-38786.791361,10658.965565,-73545.167808
26193.179025,16876.695478,22354.219448,-74158.044206
26193.181555,-25611.125593,25463.084405,-71093.662214
26193.184086,6365.771101,11991.336260,-74311.263306
26193.186616,5921.647536,6661.853478,-74617.701505
26193.189147,4737.318029,3256.906145,-75230.577904
26193.191677,-5921.647536,6217.729913,-75537.016103
26193.194208,8290.306550,4441.235652,-77835.302597
26193.196738,-16432.571912,10510.924376,-75843.454302
26193.199269,4737.318029,14804.118840,-73698.386908
26193.201799,-1332.370696,4293.194464,-74924.139704
26193.204330,-6365.771101,7254.018232,-74158.044206
26193.206860,7402.059420,10214.842000,-73851.606007
26193.209391,-13323.706956,12731.542202,-75077.358804
26193.211921,-888.247130,13915.871710,-75383.797003
26193.214452,-8734.430116,17172.777854,-72625.853210
26193.216982,12435.459826,14952.160028,-74004.825107
26193.219513,-3701.029710,12879.583391,-74004.825107
26193.222043,-6513.812290,15988.448347,-74770.920605
26193.224573,-2960.823768,16136.489536,-75230.577904
26193.227104,10807.006753,-4293.194464,-77835.302597
26193.229634,-5329.482782,-4441.235652,-73238.729609
26193.232165,23982.672521,-8438.347739,-77375.645298
26193.234695,9178.553681,-4737.318029,-76456.330700
26193.237226,296.082377,-2072.576638,-75230.577904
26193.239756,10066.800811,7994.224174,-75383.797003
26193.242287,-6661.853478,7550.100608,-75996.673402
26193.244817,3701.029710,8586.388927,-73545.167808
26193.247348,14656.077652,6957.935855,-74924.139704
26193.249878,4885.359217,5033.400406,-76149.892501
26193.252409,-444.123565,1924.535449,-74311.263306
26193.254939,10362.883188,1924.535449,-75383.797003
26193.257470,-4589.276840,2072.576638,-76762.768900
26193.260000,11547.212695,-296.082377,-77069.207099
26193.262531,-2072.576638,1332.370696,-74617.701505
26193.265061,18801.230927,296.082377,-75230.577904
26193.267592,10510.924376,-2368.659014,-76915.987999
26193.270122,3701.029710,-4293.194464,-77069.207099
26193.272664,-3108.864956,2220.617826,-74617.701505
26193.275203,22206.178260,3256.906145,-76149.892501
26193.277743,-25315.043216,7402.059420,-74617.701505
26193.280283,3701.029710,23834.631332,-74311.263306
26193.282822,3701.029710,24426.796086,-73238.729609
26193.285362,-16136.489536,13323.706956,-75690.235202
26193.287902,13767.830521,4145.153275,-76149.892501
26193.290441,-5329.482782,592.164754,-75383.797003
26193.292981,-12583.501014,5181.441594,-74311.263306
26193.295521,9474.636058,4589.276840,-77682.083497
26193.298060,-17468.860231,12731.542202,-74924.139704
26193.300600,13323.706956,13619.789333,-74311.263306
26193.303140,-9770.718434,11399.171507,-73238.729609
26193.305679,1184.329507,4293.194464,-74617.701505
26193.308219,1332.370696,10362.883188,-73545.167808
26193.310759,-5773.606348,10214.842000,-75537.016103
26193.313298,-6217.729913,14804.118840,-75230.577904
26193.315838,-2220.617826,15100.201217,-73851.606007
26193.318378,7846.182985,15248.242405,-73085.510509
26193.320917,148.041188,13027.624579,-74158.044206
26193.323457,-3701.029710,13323.706956,-75383.797003
26193.325997,-12731.542202,18357.107362,-74464.482406
26193.328536,22354.219448,1332.370696,-78141.740796
26193.331076,-16876.695478,-6513.812290,-74004.825107
26193.333616,36566.173535,-8290.306550,-77222.426198
26193.336155,5625.565159,-7105.977043,-76303.111601
26193.338695,3256.906145,-5181.441594,-76915.987999
26193.341235,7994.224174,8438.347739,-75230.577904
26193.343774,592.164754,8142.265362,-75996.673402
26193.346314,-7994.224174,6957.935855,-74311.263306
26193.348854,13915.871710,7402.059420,-73391.948708
26193.351393,10066.800811,4293.194464,-75537.016103
26193.353933,6217.729913,0.000000,-76915.987999
26193.356473,740.205942,3552.988522,-74004.825107
26193.359012,740.205942,2368.659014,-75537.016103
26193.361552,6957.935855,-592.164754,-76762.768900
26193.364092,2812.782580,1184.329507,-74158.044206
26193.366631,17320.819043,-592.164754,-75230.577904
26193.369171,12287.418637,-2812.782580,-77528.864398
26193.371711,4293.194464,-5181.441594,-77222.426198
26193.374223,-2960.823768,2960.823768,-75843.454302
26193.376736,24870.919651,2220.617826,-75843.454302
26193.379249,-32421.020260,8882.471304,-73391.948708
26193.381762,10510.924376,22354.219448,-75690.235202
26193.384275,-6809.894666,26499.372724,-72472.634111
26193.386787,-13619.789333,14211.954086,-74158.044206
26193.389300,9474.636058,4737.318029,-75843.454302
26193.391813,-148.041188,888.247130,-76303.111601
26193.394326,-17616.901420,6069.688724,-75230.577904
26193.396838,12139.377449,4589.276840,-78907.836294
26193.399351,-13027.624579,11991.336260,-75537.016103
26193.401864,3404.947333,12583.501014,-73391.948708
26193.404377,4145.153275,10362.883188,-75077.358804
26193.406890,-12731.542202,8734.430116,-73851.606007
26193.409402,8290.306550,10214.842000,-74004.825107
26193.411915,-18061.024985,13915.871710,-75996.673402
26193.414428,3552.988522,11991.336260,-74924.139704
26193.416941,-13323.706956,17172.777854,-73085.510509
26193.419453,17468.860231,10955.047942,-74464.482406
26193.421966,-12583.501014,14063.912898,-73545.167808
26193.424479,888.247130,15988.448347,-74617.701505
26193.426992,-11251.130318,19689.478057,-75230.577904
26193.429505,15692.365970,-1332.370696,-77375.645298
26193.432017,-13323.706956,-3701.029710,-73545.167808
26193.434530,32717.102636,-9474.636058,-77528.864398
26193.437043,5625.565159,-4589.276840,-75690.235202
26193.439556,1036.288319,-1036.288319,-75537.016103
26193.442068,11547.212695,9622.677246,-75996.673402
26193.444581,-10510.924376,6069.688724,-76303.111601
26193.447094,2516.700203,3849.070898,-73851.606007
26193.449607,16284.530724,4589.276840,-73391.948708
26193.452120,-1184.329507,5181.441594,-75077.358804
26193.454632,18209.066173,1776.494261,-77988.521696
26193.457145,-7698.141797,3701.029710,-75537.016103
26193.459658,9030.512492,1036.288319,-76609.549800
26193.462171,4293.194464,-592.164754,-75843.454302
26193.464684,7846.182985,888.247130,-74924.139704
26193.467196,18801.230927,-592.164754,-75077.358804
26193.469709,5625.565159,-3701.029710,-77528.864398
26193.472222,-5477.523971,-3552.988522,-75230.577904
26193.474748,5921.647536,2960.823768,-75690.235202
26193.477274,7105.977043,4441.235652,-75996.673402
26193.479800,-49445.756926,17468.860231,-74158.044206
26193.482326,33605.349767,16136.489536,-77222.426198
26193.484852,-27387.619854,25759.166782,-70940.443115
26193.487378,17616.901420,10214.842000,-73698.386908
26193.489904,-1924.535449,6069.688724,-75690.235202
26193.492430,11399.171507,3997.112087,-75843.454302
26193.494956,-10214.842000,9178.553681,-73545.167808
26193.497482,-9326.594869,7550.100608,-77375.645298
26193.500008,-6217.729913,14063.912898,-73391.948708
26193.502534,7105.977043,11399.171507,-73545.167808
26193.505060,-888.247130,3701.029710,-75230.577904
26193.507586,-3108.864956,9030.512492,-74464.482406
26193.510112,2220.617826,12731.542202,-74924.139704
26193.512638,-18357.107362,13915.871710,-76762.768900
26193.515164,3108.864956,14359.995275,-74617.701505
26193.517690,-5181.441594,14656.077652,-72625.853210
26193.520216,9770.718434,11547.212695,-74464.482406
26193.522741,-8586.388927,15840.407159,-73238.729609
26193.525267,-8290.306550,19689.478057,-75690.235202
26193.527793,17912.983796,4441.235652,-78601.398095
26193.530319,-4145.153275,-4885.359217,-74770.920605
26193.532845,10214.842000,-5033.400406,-74004.825107
26193.535371,23982.672521,-8734.430116,-76762.768900
26193.537897,1332.370696,-4441.235652,-75077.358804
26193.540423,3256.906145,12731.542202,-74158.044206
26193.542949,10214.842000,9918.759623,-75843.454302
26193.545475,-16728.654289,5477.523971,-74464.482406
26193.548001,24130.713709,4441.235652,-74311.263306
26193.550527,2072.576638,4737.318029,-74770.920605
26193.553053,10362.883188,1628.453072,-77069.207099
26193.555579,4885.359217,6069.688724,-75383.797003
26193.558105,-2368.659014,1480.411884,-76149.892501
26193.560631,8734.430116,-3108.864956,-76609.549800
26193.563157,2812.782580,296.082377,-75383.797003
26193.565683,19689.478057,-296.082377,-75383.797003
26193.568209,10807.006753,-2368.659014,-76149.892501
26193.570735,-2664.741391,-3108.864956,-76149.892501
26193.573261,444.123565,740.205942,-75690.235202
26193.575798,19985.560434,1924.535449,-75383.797003
26193.578334,-41895.656317,12731.542202,-73851.606007
26193.580871,21021.848753,21614.013506,-76303.111601
26193.583408,-21910.095883,27831.743419,-70634.004916
26193.585944,740.205942,12731.542202,-73391.948708
26193.588481,7846.182985,3849.070898,-74464.482406
26193.591017,-296.082377,0.000000,-75843.454302
26193.593554,-7698.141797,7846.182985,-74770.920605
26193.596091,7994.224174,7846.182985,-77222.426198
26193.598627,-13027.624579,9622.677246,-75843.454302
26193.601164,5181.441594,13767.830521,-73238.729609
26193.603701,-1184.329507,4885.359217,-74770.920605
26193.606237,-6957.935855,6513.812290,-75537.016103
26193.608774,6809.894666,15544.324782,-73391.948708
26193.611310,-11695.253884,14063.912898,-76149.892501
26193.613847,-5329.482782,14508.036463,-75077.358804
26193.616384,5181.441594,13323.706956,-73085.510509
26193.618920,888.247130,12435.459826,-73238.729609
26193.621457,-6069.688724,14656.077652,-74924.139704
26193.623993,-8290.306550,21762.054695,-74924.139704
26193.626530,22206.178260,4441.235652,-77375.645298
26193.629067,-9918.759623,-6217.729913,-74924.139704
26193.631603,28275.866984,-8734.430116,-75996.673402
26193.634140,6217.729913,-10807.006753,-76609.549800
26193.636677,7254.018232,-5477.523971,-76456.330700
26193.639213,1628.453072,11399.171507,-74924.139704
26193.641750,10510.924376,10066.800811,-76762.768900
26193.644286,-11399.171507,5329.482782,-73391.948708
26193.646823,25167.002028,3404.947333,-73391.948708
26193.649360,-5625.565159,6217.729913,-74770.920605
26193.651896,20725.766376,3404.947333,-77682.083497
26193.654433,-5329.482782,5181.441594,-75077.358804
26193.656970,6809.894666,1036.288319,-75077.358804
26193.659506,2812.782580,-5181.441594,-77222.426198
26193.662043,11251.130318,-1036.288319,-75383.797003
26193.664579,16876.695478,-1332.370696,-76303.111601
26193.667116,8586.388927,-1628.453072,-77222.426198
26193.669653,-4441.235652,-3108.864956,-76149.892501
26193.672189,18061.024985,2368.659014,-75383.797003
26193.674726,2220.617826,4293.194464,-73698.386908
26193.677272,-43079.985824,21317.931130,-74311.263306
26193.679818,32865.143825,17912.983796,-78141.740796
26193.682363,-18801.230927,21762.054695,-73545.167808
26193.684909,15396.283594,8586.388927,-73698.386908
26193.687455,5477.523971,2220.617826,-75996.673402
26193.690001,-3701.029710,3256.906145,-75383.797003
26193.692547,7105.977043,12731.542202,-74158.044206
26193.695093,-18061.024985,10362.883188,-77835.302597
26193.697638,-592.164754,12731.542202,-74770.920605
26193.700184,1184.329507,12879.583391,-72932.291410
26193.702730,1776.494261,1036.288319,-77222.426198
26193.705276,-6513.812290,9474.636058,-75690.235202
26193.707822,5329.482782,14952.160028,-75383.797003
26193.710368,-15692.365970,15396.283594,-75843.454302
26193.712913,2812.782580,13767.830521,-74158.044206
26193.715459,1332.370696,11991.336260,-72779.072310
26193.718005,-148.041188,12435.459826,-73391.948708
26193.720551,-6957.935855,18801.230927,-74311.263306
26193.723097,444.123565,20577.725188,-75077.358804
26193.725643,13027.624579,740.205942,-77528.864398
26193.728188,-14508.036463,-4589.276840,-73851.606007
26193.730734,37898.544230,-11399.171507,-77375.645298
26193.733280,2516.700203,-7402.059420,-75996.673402
26193.735826,-3997.112087,2664.741391,-75690.235202
26193.738372,17764.942608,8438.347739,-77988.521696
26193.740918,-11399.171507,7550.100608,-75843.454302
26193.743463,2960.823768,148.041188,-73545.167808
26193.746009,9178.553681,4293.194464,-73545.167808
26193.748555,9326.594869,5329.482782,-76303.111601
26193.751101,12583.501014,6513.812290,-76762.768900
26193.753647,-3108.864956,3701.029710,-75077.358804
26193.756193,7698.141797,-2664.741391,-75383.797003
26193.758738,1480.411884,-2516.700203,-74464.482406
26193.761284,14952.160028,-1480.411884,-75383.797003
26193.763830,13767.830521,-296.082377,-76456.330700
26193.766376,2072.576638,-2664.741391,-76915.987999
26193.768922,-5033.400406,-1036.288319,-75690.235202
26193.771468,24426.796086,-1480.411884,-76303.111601
26193.774013,-41155.450375,10066.800811,-72932.291410
26193.776559,15692.365970,23094.425390,-75843.454302
26193.779079,-15544.324782,30644.525999,-71400.100414
26193.781599,-8438.347739,14656.077652,-71859.757712
26193.784118,11547.212695,1776.494261,-75077.358804
26193.786638,-2812.782580,-148.041188,-75383.797003
26193.789158,-10214.842000,6957.935855,-74924.139704
26193.791678,6365.771101,7994.224174,-78601.398095
26193.794197,-5625.565159,8734.430116,-77069.207099
26193.796717,5033.400406,13619.789333,-73238.729609
26193.799237,1924.535449,4737.318029,-74770.920605
26193.801757,-16580.613101,4737.318029,-75537.016103
26193.804276,10658.965565,15544.324782,-73391.948708
26193.806796,-16876.695478,17024.736666,-75843.454302
26193.809316,-2516.700203,16136.489536,-75383.797003
26193.811836,5477.523971,12731.542202,-74158.044206
26193.814355,592.164754,12139.377449,-72012.976812
26193.816875,-2516.700203,16728.654289,-73545.167808
26193.819395,-7402.059420,21021.848753,-74770.920605
26193.821915,17468.860231,2516.700203,-77528.864398
26193.824434,-11251.130318,-2220.617826,-74617.701505
26193.826954,26203.290347,-12139.377449,-77835.302597
26193.829474,6661.853478,-8882.471304,-75690.235202
26193.831994,6513.812290,-5477.523971,-75230.577904
26193.834513,0.000000,14359.995275,-76915.987999
26193.837033,-2220.617826,11103.089130,-75843.454302
26193.839553,-6661.853478,4737.318029,-73391.948708
26193.842073,18949.272115,444.123565,-74770.920605
26193.844592,-5477.523971,6365.771101,-75996.673402
26193.847112,17912.983796,5625.565159,-77528.864398
26193.849632,3108.864956,6069.688724,-75537.016103
26193.852152,2960.823768,148.041188,-75077.358804
26193.854671,8290.306550,-3701.029710,-74924.139704
26193.857191,6957.935855,-1480.411884,-75383.797003
26193.859711,19393.395680,-1036.288319,-76609.549800
26193.862231,-3256.906145,-148.041188,-75843.454302
26193.864750,296.082377,-296.082377,-75996.673402
26193.867270,23538.548956,-296.082377,-75996.673402
26193.869790,-26647.413912,5625.565159,-72932.291410
26193.872309,-1776.494261,26055.249158,-74770.920605
26193.874829,11991.336260,25315.043216,-75383.797003
26193.877349,-9030.512492,14508.036463,-72472.634111
26193.879881,7254.018232,2664.741391,-74311.263306
26193.882414,592.164754,-2072.576638,-76609.549800
26193.884946,-15544.324782,3552.988522,-75383.797003
26193.887478,13619.789333,9474.636058,-77835.302597
26193.890011,-20725.766376,15692.365970,-75843.454302
26193.892543,17172.777854,10214.842000,-74617.701505
26193.895075,-6365.771101,8290.306550,-73545.167808
26193.897608,-9326.594869,8734.430116,-72932.291410
26193.900140,3404.947333,15544.324782,-74158.044206
26193.902672,-13027.624579,18209.066173,-75077.358804
26193.905205,-4441.235652,19393.395680,-73391.948708
26193.907737,8142.265362,11103.089130,-74924.139704
26193.910269,-6957.935855,9770.718434,-72166.195912
26193.912802,-592.164754,14656.077652,-73851.606007
26193.915334,-7402.059420,20873.807564,-75230.577904
26193.917866,4145.153275,2516.700203,-75843.454302
26193.920399,-5773.606348,-1184.329507,-74158.044206
26193.922931,31976.896694,-12879.583391,-77835.302597
26193.925464,8290.306550,-9918.759623,-76303.111601
26193.927996,-5921.647536,-2516.700203,-75537.016103
26193.930528,15988.448347,13175.665768,-75996.673402
26193.933061,1332.370696,11695.253884,-75230.577904
26193.935593,-11991.336260,2664.741391,-73238.729609
26193.938125,13767.830521,2368.659014,-74617.701505
26193.940658,1480.411884,5477.523971,-76609.549800
26193.943190,14508.036463,8586.388927,-76609.549800
26193.945722,2960.823768,4441.235652,-75996.673402
26193.948255,4737.318029,-1332.370696,-75077.358804
26193.950787,8290.306550,-6957.935855,-75537.016103
26193.953319,10362.883188,-2960.823768,-75230.577904
26193.955852,14359.995275,-1924.535449,-77069.207099
26193.958384,-3997.112087,740.205942,-76456.330700
26193.960916,11843.295072,-444.123565,-77375.645298
26193.963449,8586.388927,444.123565,-74924.139704
26193.965981,-47965.345042,10955.047942,-72472.634111
26193.968513,23686.590144,19541.436869,-75843.454302
26193.971046,-21317.931130,30496.484810,-71400.100414
26193.973578,296.082377,14952.160028,-72166.195912
26193.976110,9622.677246,1480.411884,-74924.139704
26193.978643,-2664.741391,740.205942,-75537.016103
26193.981186,-7254.018232,8438.347739,-75843.454302
26193.983729,-296.082377,10362.883188,-78141.740796
26193.986272,-13027.624579,13471.748144,-75230.577904
26193.988816,14952.160028,8882.471304,-75383.797003
26193.991359,-12139.377449,5329.482782,-74004.825107
26193.993902,-2812.782580,6957.935855,-74924.139704
26193.996445,-2220.617826,16876.695478,-75690.235202
26193.998989,-6513.812290,17912.983796,-75690.235202
26194.001532,-444.123565,17172.777854,-74158.044206
26194.004075,4145.153275,10807.006753,-74004.825107
26194.006618,-11399.171507,11991.336260,-71859.757712
26194.009162,444.123565,19097.313304,-74158.044206
26194.011705,11991.336260,12583.501014,-76456.330700
26194.014248,-3552.988522,-444.123565,-75843.454302
26194.016791,6661.853478,-3404.947333,-75537.016103
26194.019335,17024.736666,-8438.347739,-76149.892501
26194.021878,5329.482782,-5773.606348,-75383.797003
26194.024421,-7846.182985,10214.842000,-75383.797003
26194.026964,20281.642811,10362.883188,-77222.426198
26194.029508,-14063.912898,4737.318029,-73851.606007
26194.032051,19097.313304,-2072.576638,-75383.797003
26194.034594,-5625.565159,5181.441594,-75230.577904
26194.037137,14508.036463,7105.977043,-78448.178995
26194.039681,6513.812290,6661.853478,-76609.549800
26194.042224,1628.453072,1036.288319,-74617.701505
26194.044767,10658.965565,-5329.482782,-75230.577904
26194.047310,5773.606348,-4293.194464,-75690.235202
26194.049854,18949.272115,-3256.906145,-76609.549800
26194.052397,-5773.606348,740.205942,-76456.330700
26194.054940,10214.842000,1776.494261,-76915.987999
26194.057483,16136.489536,1184.329507,-76303.111601
26194.060027,-33753.390955,6513.812290,-72319.415011
26194.062579,7846.182985,23242.466579,-74617.701505
26194.065131,-5477.523971,28275.866984,-72625.853210
26194.067683,-14211.954086,15544.324782,-74311.263306
26194.070235,11399.171507,3108.864956,-74311.263306
26194.072787,2368.659014,-2812.782580,-75690.235202
26194.075339,-9918.759623,6661.853478,-75230.577904
26194.077892,8438.347739,5181.441594,-79367.493593
26194.080444,-15396.283594,14211.954086,-76303.111601
26194.082996,5625.565159,11991.336260,-75230.577904
26194.085548,148.041188,3849.070898,-74617.701505
26194.088100,-7846.182985,7994.224174,-72932.291410
26194.090652,1332.370696,13915.871710,-73698.386908
26194.093204,-15988.448347,19393.395680,-75843.454302
26194.095756,2368.659014,18209.066173,-74770.920605
26194.098308,-296.082377,13027.624579,-73391.948708
26194.100861,-2664.741391,11103.089130,-73851.606007
26194.103413,-7254.018232,18801.230927,-74158.044206
26194.105965,17320.819043,11843.295072,-76303.111601
26194.108517,-5181.441594,-148.041188,-75690.235202
26194.111069,7254.018232,-2664.741391,-76149.892501
26194.113621,10658.965565,-9326.594869,-76303.111601
26194.116173,10214.842000,-7402.059420,-76762.768900
26194.118725,-8734.430116,9474.636058,-74311.263306
26194.121277,20577.725188,11103.089130,-77528.864398
26194.123830,-8142.265362,7698.141797,-74311.263306
26194.126382,10510.924376,740.205942,-73851.606007
26194.128934,1184.329507,2368.659014,-75383.797003
26194.131486,11251.130318,6661.853478,-76915.987999
26194.134038,10066.800811,6513.812290,-76456.330700
26194.136590,-3552.988522,740.205942,-74924.139704
26194.139142,13471.748144,-4885.359217,-74311.263306
26194.141694,6513.812290,-4885.359217,-74617.701505
26194.144246,15988.448347,-3552.988522,-75843.454302
26194.146799,2516.700203,148.041188,-75996.673402
26194.149351,-444.123565,1924.535449,-77375.645298
26194.151903,26943.496289,-592.164754,-77375.645298
26194.154455,-49741.839302,9178.553681,-71706.538613
26194.157007,19541.436869,19837.519246,-75077.358804
26194.159559,-21169.889941,31088.649564,-71093.662214
26194.162111,-5181.441594,15988.448347,-73085.510509
26194.164670,7698.141797,3404.947333,-74158.044206
26194.167229,2516.700203,-3256.906145,-75230.577904
26194.169788,-18801.230927,3256.906145,-75843.454302
26194.172347,13175.665768,8290.306550,-77375.645298
26194.174906,-16432.571912,14211.954086,-74617.701505
26194.177465,13323.706956,11103.089130,-75077.358804
26194.180023,-9770.718434,5625.565159,-73545.167808
26194.182582,-4737.318029,6661.853478,-74004.825107
26194.185141,-592.164754,14508.036463,-74464.482406
26194.187700,-12435.459826,16284.530724,-76456.330700
26194.190259,-1776.494261,18357.107362,-74464.482406
26194.192818,4737.318029,12139.377449,-74158.044206
26194.195377,-10066.800811,14211.954086,-72166.195912
26194.197936,-1332.370696,19245.354492,-74311.263306
26194.200495,18505.148550,7994.224174,-77528.864398
26194.203054,-11251.130318,-888.247130,-74617.701505
26194.205612,15988.448347,-6513.812290,-77222.426198
26194.208171,19245.354492,-9918.759623,-77988.521696
26194.210730,1480.411884,-7402.059420,-75996.673402
26194.213289,0.000000,9474.636058,-74924.139704
26194.215848,8734.430116,11103.089130,-76915.987999
26194.218407,-5477.523971,6069.688724,-73391.948708
26194.220966,8290.306550,3108.864956,-72625.853210
26194.223525,6809.894666,1036.288319,-75690.235202
26194.226084,10214.842000,7994.224174,-77222.426198
26194.228642,7550.100608,8290.306550,-75690.235202
26194.231201,2072.576638,-592.164754,-75537.016103
26194.233760,9918.759623,-6069.688724,-75077.358804
26194.236319,11991.336260,-6513.812290,-76303.111601
26194.238878,4737.318029,-2368.659014,-75077.358804
26194.241437,-592.164754,296.082377,-77222.426198
26194.243996,16580.613101,3701.029710,-76609.549800
26194.246555,8586.388927,1036.288319,-75537.016103
26194.249114,-50778.127621,10955.047942,-72319.415011
26194.251673,27387.619854,17024.736666,-75690.235202
26194.254231,-26055.249158,29460.196492,-72166.195912
26194.256790,11547.212695,15988.448347,-75996.673402
26194.259349,2368.659014,1480.411884,-74464.482406
26194.261908,-4145.153275,2960.823768,-73851.606007
26194.264467,-3404.947333,7105.977043,-75996.673402
26194.267036,-10362.883188,10066.800811,-78141.740796
26194.269601,-4589.276840,11103.089130,-76456.330700
26194.272166,3849.070898,12583.501014,-74158.044206
26194.274730,2664.741391,2368.659014,-74311.263306
26194.277295,-10510.924376,8882.471304,-73238.729609
26194.279860,-148.041188,14063.912898,-76609.549800
26194.282424,-15544.324782,18949.272115,-74311.263306
26194.284989,9178.553681,14656.077652,-74617.701505
26194.287554,-4145.153275,12287.418637,-73698.386908
26194.290118,-11843.295072,17912.983796,-72625.853210
26194.292683,11547.212695,18061.024985,-74464.482406
26194.295248,4737.318029,4293.194464,-75843.454302
26194.297812,-7698.141797,-444.123565,-74158.044206
26194.300377,22650.301825,-12287.418637,-77682.083497
26194.302942,7994.224174,-9622.677246,-76609.549800
26194.305506,-3552.988522,3108.864956,-74617.701505
26194.308071,12139.377449,12435.459826,-76762.768900
26194.310636,-4145.153275,11399.171507,-75230.577904
26194.313200,3701.029710,3256.906145,-71553.319513
26194.315765,4589.276840,296.082377,-73391.948708
26194.318330,9474.636058,5181.441594,-76303.111601
26194.320894,7105.977043,10658.965565,-77069.207099
26194.323459,1924.535449,2368.659014,-76149.892501
26194.326024,8586.388927,-4145.153275,-75690.235202
26194.328588,8882.471304,-6069.688724,-74311.263306
26194.331153,11695.253884,-5477.523971,-76762.768900
26194.333718,5921.647536,-1184.329507,-75843.454302
26194.336282,-1036.288319,2812.782580,-77835.302597
26194.338847,28423.908173,296.082377,-77069.207099
26194.341412,-45448.644839,6957.935855,-71246.881314
26194.343976,12583.501014,20429.683999,-74158.044206
26194.346541,-13323.706956,29608.237680,-72319.415011
26194.349106,-6809.894666,17616.901420,-73391.948708
26194.351670,11547.212695,3701.029710,-74311.263306
26194.354235,3108.864956,-2664.741391,-74770.920605
26194.356800,-23538.548956,592.164754,-75996.673402
26194.359364,14211.954086,4293.194464,-78601.398095
26194.361929,-18505.148550,13767.830521,-75383.797003
26194.364494,11695.253884,11547.212695,-75383.797003
26194.367058,-3701.029710,5181.441594,-75077.358804
26194.369627,-8290.306550,8586.388927,-73238.729609
26194.372196,7105.977043,14359.995275,-74770.920605
26194.374765,-16432.571912,16580.613101,-76303.111601
26194.377334,-740.205942,18061.024985,-74158.044206
26194.379903,1924.535449,12139.377449,-74311.263306
26194.382472,-5477.523971,15396.283594,-73698.386908
26194.385041,-296.082377,20281.642811,-73851.606007
26194.387609,18801.230927,2220.617826,-77069.207099
26194.390178,-18653.189738,888.247130,-74158.044206
26194.392747,33457.308578,-8882.471304,-77988.521696
26194.395316,4441.235652,-9622.677246,-76915.987999
26194.397885,7994.224174,-4885.359217,-76149.892501
26194.400454,2368.659014,13175.665768,-75690.235202
26194.403023,-2812.782580,11547.212695,-75843.454302
26194.405592,0.000000,4441.235652,-72625.853210
