#time,accel_x,accel_y,accel_z
24991.703868,3552.988522,6957.935855,-75537.016103
24991.706421,-444.123565,5921.647536,-75537.016103
24991.708974,4589.276840,7402.059420,-75383.797003
24991.711527,-740.205942,5773.606348,-75230.577904
24991.714080,3849.070898,6809.894666,-75230.577904
24991.716633,2220.617826,7254.018232,-75230.577904
24991.719186,2072.576638,5921.647536,-74464.482406
24991.721739,8734.430116,5329.482782,-75077.358804
24991.724292,-888.247130,9030.512492,-74464.482406
24991.726845,11991.336260,3849.070898,-76149.892501
24991.729398,-5329.482782,5181.441594,-74924.139704
24991.731951,10362.883188,3108.864956,-75537.016103
24991.734504,-1628.453072,740.205942,-75690.235202
24991.737057,5181.441594,-296.082377,-75843.454302
24991.739610,-3701.029710,4293.194464,-75230.577904
24991.742163,10807.006753,4589.276840,-75690.235202
24991.744716,1628.453072,7402.059420,-75690.235202
24991.747269,14359.995275,4441.235652,-75537.016103
24991.749822,0.000000,2664.741391,-74770.920605
24991.752375,3108.864956,2368.659014,-74924.139704
24991.754917,-3849.070898,5033.400406,-75077.358804
24991.757474,1332.370696,9326.594869,-75690.235202
24991.760030,4293.194464,8882.471304,-74924.139704
24991.762586,-13175.665768,12879.583391,-73698.386908
24991.765142,8438.347739,12287.418637,-75690.235202
24991.767699,-3552.988522,12879.583391,-74311.263306
24991.770255,-2220.617826,8882.471304,-74311.263306
24991.772811,4441.235652,7994.224174,-75383.797003
24991.775367,1628.453072,3701.029710,-75383.797003
24991.777924,1332.370696,4589.276840,-75230.577904
24991.780480,1924.535449,4737.318029,-76456.330700
24991.783036,-1184.329507,7254.018232,-74464.482406
24991.785593,2220.617826,11103.089130,-73238.729609
24991.788149,-5329.482782,14063.912898,-74004.825107
24991.790705,6365.771101,8438.347739,-75230.577904
24991.793261,-7846.182985,7402.059420,-74464.482406
24991.795818,7994.224174,3701.029710,-75843.454302
24991.798374,-8586.388927,8290.306550,-75996.673402
24991.800930,2960.823768,6365.771101,-77528.864398
24991.803486,-7846.182985,12731.542202,-74617.701505
24991.806043,6513.812290,8586.388927,-74311.263306
24991.808599,-4589.276840,11399.171507,-75383.797003
24991.811155,3552.988522,6957.935855,-75690.235202
24991.813711,888.247130,9918.759623,-74464.482406
24991.816268,-3404.947333,7254.018232,-74924.139704
24991.818824,-8142.265362,9030.512492,-74617.701505
24991.821380,-1332.370696,12879.583391,-75383.797003
24991.823936,7105.977043,8142.265362,-75843.454302
24991.826493,-1332.370696,9918.759623,-75077.358804
24991.829049,-2072.576638,7254.018232,-74617.701505
24991.831605,4441.235652,7698.141797,-75690.235202
24991.834161,9030.512492,3552.988522,-75383.797003
24991.836718,-20133.601622,4885.359217,-74158.044206
24991.839274,-4589.276840,12731.542202,-75077.358804
24991.841830,32421.020260,8438.347739,-76303.111601
24991.844386,-27535.661042,3552.988522,-74464.482406
24991.846943,7105.977043,296.082377,-78141.740796
24991.849499,29756.278868,-2516.700203,-76762.768900
24991.852055,-12583.501014,-5625.565159,-75537.016103
24991.854611,-9770.718434,-2368.659014,-77682.083497
24991.857167,15692.365970,6365.771101,-76762.768900
24991.859723,4737.318029,11399.171507,-74004.825107
24991.862279,2220.617826,9030.512492,-73851.606007
24991.864835,7550.100608,6365.771101,-75383.797003
24991.867391,1924.535449,5921.647536,-74311.263306
24991.869947,2220.617826,3256.906145,-75077.358804
24991.872503,1184.329507,1480.411884,-76303.111601
24991.875059,148.041188,2960.823768,-76915.987999
24991.877615,11991.336260,5477.523971,-74924.139704
24991.880171,3404.947333,4885.359217,-74770.920605
24991.882727,8438.347739,3997.112087,-75383.797003
24991.885283,-4293.194464,5773.606348,-74311.263306
24991.887839,12139.377449,3404.947333,-74770.920605
24991.890395,-5921.647536,7402.059420,-74770.920605
24991.892951,2516.700203,7550.100608,-74770.920605
24991.895508,11399.171507,5477.523971,-76915.987999
24991.898064,1480.411884,6069.688724,-74464.482406
24991.900620,6069.688724,2812.782580,-74004.825107
24991.903176,-2516.700203,-148.041188,-77069.207099
24991.905732,6809.894666,2516.700203,-75690.235202
24991.908288,4737.318029,2220.617826,-75383.797003
24991.910844,5033.400406,1628.453072,-76609.549800
24991.913400,-4441.235652,3701.029710,-75690.235202
24991.915956,9326.594869,6069.688724,-74464.482406
24991.918512,5477.523971,8142.265362,-74617.701505
24991.921068,11695.253884,2812.782580,-77222.426198
24991.923624,-10807.006753,7550.100608,-74311.263306
24991.926180,9030.512492,6661.853478,-75996.673402
24991.928736,3701.029710,5477.523971,-75690.235202
24991.931292,10362.883188,888.247130,-74924.139704
24991.933848,-6365.771101,1480.411884,-75230.577904
24991.936404,14359.995275,6069.688724,-75996.673402
24991.938960,15544.324782,-444.123565,-76456.330700
24991.941516,-34937.720462,8734.430116,-73238.729609
24991.944072,28719.990550,12435.459826,-77069.207099
24991.946628,2516.700203,17912.983796,-75230.577904
24991.949184,-20873.807564,9030.512492,-74311.263306
24991.951740,1628.453072,8290.306550,-75230.577904
24991.954296,19097.313304,-1184.329507,-77528.864398
24991.956852,-8734.430116,3997.112087,-73391.948708
24991.959409,-4737.318029,0.000000,-76915.987999
24991.961966,2220.617826,6957.935855,-77069.207099
24991.964524,-5033.400406,14804.118840,-73391.948708
24991.967081,2072.576638,16432.571912,-74004.825107
24991.969639,1628.453072,11547.212695,-76303.111601
24991.972196,-3404.947333,9326.594869,-74004.825107
24991.974754,6365.771101,4589.276840,-74770.920605
24991.977311,-7550.100608,4589.276840,-76303.111601
24991.979868,4441.235652,7846.182985,-76303.111601
24991.982426,-444.123565,7254.018232,-74617.701505
24991.984983,-1036.288319,8734.430116,-74004.825107
24991.987541,6957.935855,9326.594869,-73698.386908
24991.990098,-2960.823768,8882.471304,-75843.454302
24991.992656,-740.205942,5773.606348,-75230.577904
24991.995213,-296.082377,10807.006753,-73391.948708
24991.997771,-1036.288319,8734.430116,-76149.892501
24992.000328,4441.235652,9030.512492,-75996.673402
24992.002885,-5181.441594,8734.430116,-73698.386908
24992.005443,5921.647536,8586.388927,-74004.825107
24992.008000,-1776.494261,8734.430116,-76456.330700
24992.010558,-2368.659014,11399.171507,-74924.139704
24992.013115,-4885.359217,10955.047942,-74770.920605
24992.015673,888.247130,11399.171507,-75230.577904
24992.018230,6513.812290,6217.729913,-76149.892501
24992.020787,-592.164754,5625.565159,-74770.920605
24992.023345,-7994.224174,6069.688724,-74464.482406
24992.025902,10362.883188,7846.182985,-75230.577904
24992.028460,1036.288319,4885.359217,-75843.454302
24992.031017,-19393.395680,8290.306550,-74158.044206
24992.033575,2664.741391,15840.407159,-74311.263306
24992.036132,26795.455100,10066.800811,-76303.111601
24992.038689,-23538.548956,2516.700203,-74311.263306
24992.041247,1776.494261,-888.247130,-76762.768900
24992.043804,29312.155303,-4737.318029,-78601.398095
24992.046362,-16580.613101,-7846.182985,-75996.673402
24992.048919,444.123565,2368.659014,-76303.111601
24992.051477,14804.118840,7105.977043,-76762.768900
24992.054034,-592.164754,15840.407159,-72932.291410
24992.056591,8882.471304,11399.171507,-73698.386908
24992.059149,6513.812290,8882.471304,-74770.920605
24992.061705,6957.935855,3404.947333,-73698.386908
24992.064262,-1332.370696,1184.329507,-73851.606007
24992.066819,3552.988522,-3256.906145,-76456.330700
24992.069375,-3552.988522,3404.947333,-75996.673402
24992.071932,13767.830521,6513.812290,-75537.016103
24992.074488,0.000000,6957.935855,-75843.454302
24992.077045,6217.729913,5329.482782,-75230.577904
24992.079601,1480.411884,4293.194464,-75690.235202
24992.082158,3256.906145,6069.688724,-74770.920605
24992.084715,4441.235652,6365.771101,-75230.577904
24992.087271,740.205942,9918.759623,-75537.016103
24992.089828,10955.047942,7105.977043,-75230.577904
24992.092384,5033.400406,3849.070898,-73545.167808
24992.094941,2516.700203,1184.329507,-74464.482406
24992.097498,2220.617826,-1480.411884,-76609.549800
24992.100054,5625.565159,1184.329507,-75843.454302
24992.102611,-1036.288319,4293.194464,-75843.454302
24992.105167,9178.553681,6365.771101,-76303.111601
24992.107724,2812.782580,5477.523971,-75537.016103
24992.110280,12435.459826,3404.947333,-75077.358804
24992.112837,-7254.018232,3701.029710,-74158.044206
24992.115394,-1480.411884,7402.059420,-74004.825107
24992.117950,9622.677246,7994.224174,-75690.235202
24992.120507,8438.347739,7254.018232,-75383.797003
24992.123063,1924.535449,444.123565,-75383.797003
24992.125620,-4145.153275,2960.823768,-74924.139704
24992.128176,19985.560434,3256.906145,-75077.358804
24992.130733,-12287.418637,-1036.288319,-76149.892501
24992.133290,-31680.814318,17172.777854,-73545.167808
24992.135846,33013.185013,10510.924376,-77375.645298
24992.138403,-5921.647536,17764.942608,-74464.482406
24992.140959,-9622.677246,11251.130318,-73085.510509
24992.143516,11547.212695,10214.842000,-75690.235202
24992.146072,12731.542202,3256.906145,-74464.482406
24992.148629,-4293.194464,3404.947333,-74924.139704
24992.151186,-9030.512492,3552.988522,-77069.207099
24992.153742,2960.823768,9030.512492,-74464.482406
24992.156299,-7105.977043,14359.995275,-74311.263306
24992.158855,4441.235652,13027.624579,-74770.920605
24992.161412,-3256.906145,11991.336260,-75077.358804
24992.163969,3997.112087,9918.759623,-73851.606007
24992.166527,-444.123565,2664.741391,-75230.577904
24992.169084,-1776.494261,6217.729913,-76609.549800
24992.171642,1480.411884,6957.935855,-77069.207099
24992.174199,-296.082377,5625.565159,-75230.577904
24992.176757,1332.370696,7254.018232,-72166.195912
24992.179314,-4737.318029,8438.347739,-73391.948708
24992.181872,4441.235652,5477.523971,-77222.426198
24992.184429,1036.288319,11547.212695,-74617.701505
24992.186987,-1924.535449,11547.212695,-74464.482406
24992.189544,2664.741391,9178.553681,-76303.111601
24992.192102,-5033.400406,8438.347739,-75690.235202
24992.194659,6957.935855,10214.842000,-72625.853210
24992.197217,-12287.418637,11547.212695,-74464.482406
24992.199774,3256.906145,12435.459826,-77222.426198
24992.202332,-10362.883188,14804.118840,-74158.044206
24992.204889,12731.542202,7846.182985,-75077.358804
24992.207447,888.247130,3997.112087,-74924.139704
24992.210004,-13619.789333,2960.823768,-74464.482406
24992.212562,10214.842000,8882.471304,-74617.701505
24992.215119,7105.977043,6069.688724,-76915.987999
24992.217676,-21169.889941,9326.594869,-74464.482406
24992.220234,-3404.947333,14508.036463,-75230.577904
24992.222791,21169.889941,12583.501014,-75383.797003
24992.225349,2220.617826,3701.029710,-74311.263306
24992.227906,-11547.212695,5773.606348,-73238.729609
24992.230464,30348.443622,740.205942,-74004.825107
24992.233021,-1480.411884,-2812.782580,-73238.729609
24992.235579,-11399.171507,-4589.276840,-77222.426198
24992.238136,13471.748144,4145.153275,-78141.740796
24992.240694,-1332.370696,14508.036463,-73085.510509
24992.243251,5033.400406,13915.871710,-73698.386908
24992.245809,13619.789333,10807.006753,-75996.673402
24992.248366,10658.965565,2516.700203,-75843.454302
24992.250924,-2960.823768,-888.247130,-75230.577904
24992.253481,2960.823768,-5033.400406,-77069.207099
24992.256039,1332.370696,-1480.411884,-77375.645298
24992.258596,5625.565159,9474.636058,-74617.701505
24992.261154,5329.482782,9326.594869,-76609.549800
24992.263711,8438.347739,1480.411884,-76915.987999
24992.266268,-8586.388927,4293.194464,-73698.386908
24992.268826,14211.954086,5181.441594,-75077.358804
24992.271383,-8586.388927,9918.759623,-75843.454302
24992.273940,14952.160028,8438.347739,-76456.330700
24992.276497,1628.453072,4589.276840,-75383.797003
24992.279055,8438.347739,2368.659014,-73545.167808
24992.281612,5181.441594,-148.041188,-73545.167808
24992.284169,-1628.453072,-1184.329507,-75690.235202
24992.286727,6661.853478,5033.400406,-75690.235202
24992.289284,5181.441594,5477.523971,-76915.987999
24992.291841,3552.988522,5033.400406,-76456.330700
24992.294398,13619.789333,1184.329507,-76456.330700
24992.296956,-6661.853478,4145.153275,-74004.825107
24992.299513,-148.041188,5329.482782,-74924.139704
24992.302070,9918.759623,10362.883188,-76303.111601
24992.304627,8290.306550,7105.977043,-76456.330700
24992.307185,2072.576638,2368.659014,-75690.235202
24992.309742,-4293.194464,592.164754,-74617.701505
24992.312299,16728.654289,3701.029710,-74770.920605
24992.314857,7698.141797,-3849.070898,-76456.330700
24992.317414,-34641.638086,16580.613101,-73851.606007
24992.319971,35529.885216,10066.800811,-78448.178995
24992.322528,-7402.059420,17616.901420,-74924.139704
24992.325086,-11103.089130,11251.130318,-72932.291410
24992.327643,14656.077652,11547.212695,-75537.016103
24992.330200,10955.047942,4293.194464,-73391.948708
24992.332757,-6365.771101,5329.482782,-74770.920605
24992.335315,1776.494261,444.123565,-77835.302597
24992.337872,-2368.659014,9770.718434,-74770.920605
24992.340429,-5181.441594,15248.242405,-74004.825107
24992.342987,8142.265362,13027.624579,-74617.701505
24992.345544,-11547.212695,14656.077652,-73851.606007
24992.348101,11843.295072,7402.059420,-74004.825107
24992.350658,-11103.089130,2812.782580,-75230.577904
24992.353216,1480.411884,6217.729913,-74924.139704
24992.355773,1480.411884,12287.418637,-76456.330700
24992.358330,5181.441594,6661.853478,-77375.645298
24992.360887,-4145.153275,5329.482782,-72932.291410
24992.363445,-444.123565,2960.823768,-73851.606007
24992.366002,-1776.494261,7105.977043,-76609.549800
24992.368558,-296.082377,10510.924376,-76456.330700
24992.371114,1184.329507,12731.542202,-75077.358804
24992.373670,-2072.576638,10214.842000,-75690.235202
24992.376226,3849.070898,6809.894666,-75690.235202
24992.378781,-11547.212695,10955.047942,-72932.291410
24992.381337,6217.729913,12287.418637,-74770.920605
24992.383893,-6365.771101,14508.036463,-76609.549800
24992.386449,8734.430116,7550.100608,-76303.111601
24992.389005,1036.288319,5773.606348,-75077.358804
24992.391561,-8882.471304,1332.370696,-75843.454302
24992.394117,1036.288319,7402.059420,-75230.577904
24992.396673,13767.830521,4441.235652,-76149.892501
24992.399228,-13619.789333,7994.224174,-74004.825107
24992.401784,-4885.359217,16876.695478,-75843.454302
24992.404340,34937.720462,9474.636058,-75690.235202
24992.406896,-24278.754898,-740.205942,-74464.482406
24992.409452,-5033.400406,-1184.329507,-76915.987999
24992.412008,30200.402434,-3849.070898,-78907.836294
24992.414564,-21317.931130,-7254.018232,-76609.549800
24992.417120,-10658.965565,-6513.812290,-77528.864398
24992.419676,13767.830521,2368.659014,-79520.712692
24992.422231,-4293.194464,15840.407159,-72625.853210
24992.424787,10658.965565,14952.160028,-74464.482406
24992.427343,11991.336260,13471.748144,-75383.797003
24992.429899,7698.141797,4441.235652,-73391.948708
24992.432455,-2960.823768,1924.535449,-73851.606007
24992.435011,7105.977043,-7846.182985,-77069.207099
24992.437567,-2220.617826,-1480.411884,-76762.768900
24992.440123,8290.306550,6217.729913,-75537.016103
24992.442679,6513.812290,10214.842000,-75690.235202
24992.445234,1036.288319,4441.235652,-74924.139704
24992.447790,11251.130318,-148.041188,-74617.701505
24992.450346,-9622.677246,8290.306550,-74158.044206
24992.452902,18209.066173,7254.018232,-76915.987999
24992.455458,-3849.070898,9326.594869,-76609.549800
24992.458014,17172.777854,-444.123565,-76762.768900
24992.460570,-10658.965565,1036.288319,-75230.577904
24992.463126,8290.306550,-2072.576638,-74770.920605
24992.465681,148.041188,1184.329507,-76456.330700
24992.468237,6069.688724,5181.441594,-76609.549800
24992.470794,5329.482782,6957.935855,-75843.454302
24992.473351,20725.766376,1332.370696,-76303.111601
24992.475908,-13915.871710,2664.741391,-74311.263306
24992.478465,2220.617826,7254.018232,-74311.263306
24992.481021,13175.665768,7994.224174,-74924.139704
24992.483578,6513.812290,7254.018232,-76303.111601
24992.486135,-1332.370696,4293.194464,-74924.139704
24992.488692,3552.988522,1480.411884,-75996.673402
24992.491248,28275.866984,-2960.823768,-77682.083497
24992.493805,-26055.249158,444.123565,-75690.235202
24992.496362,-11547.212695,22354.219448,-75537.016103
24992.498919,33605.349767,13767.830521,-76915.987999
24992.501476,-6809.894666,17616.901420,-73085.510509
24992.504032,-7402.059420,9178.553681,-73085.510509
24992.506589,21169.889941,3108.864956,-77069.207099
24992.509146,-18505.148550,5625.565159,-72625.853210
24992.511703,296.082377,1628.453072,-76915.987999
24992.514260,-4737.318029,5181.441594,-76915.987999
24992.516816,-888.247130,7846.182985,-74924.139704
24992.519373,-2812.782580,14804.118840,-74158.044206
24992.521930,7550.100608,11843.295072,-75383.797003
24992.524487,-7105.977043,14211.954086,-74464.482406
24992.527044,-148.041188,3256.906145,-75383.797003
24992.529600,-1480.411884,5921.647536,-73238.729609
24992.532157,-2516.700203,7698.141797,-74770.920605
24992.534714,11251.130318,9918.759623,-76609.549800
24992.537271,-8438.347739,7402.059420,-74770.920605
24992.539828,5773.606348,1776.494261,-73085.510509
24992.542384,-9030.512492,5921.647536,-72779.072310
24992.544941,1628.453072,7846.182985,-75383.797003
24992.547498,5181.441594,15248.242405,-75690.235202
24992.550055,-2960.823768,11843.295072,-75230.577904
24992.552611,592.164754,10510.924376,-75537.016103
24992.555168,-7254.018232,9030.512492,-74158.044206
24992.557725,0.000000,12139.377449,-73851.606007
24992.560282,-148.041188,10362.883188,-76303.111601
24992.562839,5033.400406,7994.224174,-76609.549800
24992.565395,-1036.288319,3701.029710,-75537.016103
24992.567952,-6957.935855,5921.647536,-76149.892501
24992.570509,13323.706956,5181.441594,-75537.016103
24992.572985,-5625.565159,6809.894666,-74617.701505
24992.575461,-11843.295072,11695.253884,-73698.386908
24992.577937,-296.082377,18061.024985,-75077.358804
24992.580412,40563.285622,6217.729913,-76915.987999
24992.582888,-43376.068201,888.247130,-73391.948708
24992.585364,28275.866984,-1480.411884,-77375.645298
24992.587840,23242.466579,-2368.659014,-76915.987999
24992.590316,-17024.736666,2072.576638,-74158.044206
24992.592792,9178.553681,5033.400406,-76303.111601
24992.595268,3404.947333,7698.141797,-76149.892501
24992.597744,-5033.400406,12879.583391,-72932.291410
24992.600219,9622.677246,9474.636058,-75077.358804
24992.602695,2516.700203,6957.935855,-75537.016103
24992.605171,3849.070898,5181.441594,-73085.510509
24992.607647,-1480.411884,-4145.153275,-76915.987999
24992.610123,888.247130,-5033.400406,-77375.645298
24992.612599,8142.265362,6513.812290,-74617.701505
24992.615075,6661.853478,11547.212695,-75383.797003
24992.617550,3404.947333,7698.141797,-75996.673402
24992.620026,7254.018232,740.205942,-75996.673402
24992.622502,-2960.823768,3404.947333,-73851.606007
24992.624978,8438.347739,4589.276840,-76303.111601
24992.627454,1332.370696,9622.677246,-75537.016103
24992.629930,2664.741391,3108.864956,-76609.549800
24992.632406,9474.636058,296.082377,-75996.673402
24992.634882,-2368.659014,-1036.288319,-74464.482406
24992.637357,5773.606348,2220.617826,-75383.797003
24992.639833,3256.906145,3256.906145,-76915.987999
24992.642309,17616.901420,4737.318029,-76303.111601
24992.644785,-888.247130,4441.235652,-74464.482406
24992.647261,-5625.565159,3849.070898,-75077.358804
24992.649737,9918.759623,6957.935855,-75690.235202
24992.652213,10214.842000,8734.430116,-74158.044206
24992.654688,4293.194464,3701.029710,-75537.016103
24992.657164,-2220.617826,5181.441594,-74924.139704
24992.659640,12583.501014,3256.906145,-75230.577904
24992.662116,15988.448347,-2664.741391,-76762.768900
24992.664592,-47965.345042,7698.141797,-71553.319513
24992.667068,15840.407159,19097.313304,-73851.606007
24992.669544,-1480.411884,21762.054695,-75537.016103
24992.672043,-20725.766376,11547.212695,-73085.510509
24992.674542,5773.606348,8290.306550,-76149.892501
24992.677042,16728.654289,888.247130,-76303.111601
24992.679541,-13471.748144,3849.070898,-74311.263306
24992.682040,5329.482782,444.123565,-79061.055394
24992.684540,-740.205942,9770.718434,-75843.454302
24992.687039,1184.329507,10807.006753,-74004.825107
24992.689538,1332.370696,13323.706956,-75383.797003
24992.692038,-6217.729913,10658.965565,-75077.358804
24992.694537,-1184.329507,11695.253884,-73545.167808
24992.697036,592.164754,5033.400406,-74924.139704
24992.699536,-7698.141797,8734.430116,-72779.072310
24992.702035,8142.265362,5773.606348,-76456.330700
24992.704534,6069.688724,11103.089130,-76456.330700
24992.707034,-8290.306550,10066.800811,-72166.195912
24992.709533,3256.906145,740.205942,-73545.167808
24992.712032,-3552.988522,8586.388927,-75690.235202
24992.714532,1924.535449,12583.501014,-75843.454302
24992.717031,-444.123565,15100.201217,-75843.454302
24992.719530,-4145.153275,11547.212695,-75383.797003
24992.722029,-148.041188,9918.759623,-74311.263306
24992.724529,-6069.688724,10214.842000,-71859.757712
24992.727028,6217.729913,8586.388927,-74004.825107
24992.729527,-1036.288319,5033.400406,-77528.864398
24992.732027,-4441.235652,7846.182985,-75230.577904
24992.734526,1776.494261,6957.935855,-75537.016103
24992.737025,10807.006753,4145.153275,-76609.549800
24992.739525,-15396.283594,5329.482782,-74311.263306
24992.742024,-15248.242405,13619.789333,-74004.825107
24992.744523,28423.908173,14952.160028,-75230.577904
24992.747023,13323.706956,10214.842000,-75690.235202
24992.749522,-19985.560434,7254.018232,-71553.319513
24992.752021,23686.590144,-6217.729913,-77988.521696
24992.754521,-11991.336260,-6957.935855,-75843.454302
24992.757020,-13915.871710,-4441.235652,-75690.235202
24992.759519,13027.624579,5329.482782,-78448.178995
24992.762019,-6513.812290,11547.212695,-74464.482406
24992.764518,3701.029710,12435.459826,-74004.825107
24992.767017,13323.706956,6957.935855,-76915.987999
24992.769517,10955.047942,2368.659014,-76762.768900
24992.772030,2368.659014,444.123565,-74158.044206
24992.774546,1332.370696,-4589.276840,-76303.111601
24992.777062,6365.771101,-3256.906145,-76915.987999
24992.779578,-3552.988522,7846.182985,-75537.016103
24992.782094,13471.748144,8142.265362,-76762.768900
24992.784609,296.082377,6513.812290,-73391.948708
24992.787125,-1480.411884,592.164754,-74004.825107
24992.789641,6957.935855,5773.606348,-74617.701505
24992.792157,6513.812290,7254.018232,-76609.549800
24992.794673,5477.523971,7254.018232,-76456.330700
24992.797189,2812.782580,1480.411884,-76149.892501
24992.799705,8734.430116,1036.288319,-73545.167808
24992.802221,-2664.741391,-740.205942,-74617.701505
24992.804737,11251.130318,1480.411884,-76456.330700
24992.807253,8438.347739,1628.453072,-76915.987999
24992.809769,-1924.535449,5033.400406,-74464.482406
24992.812285,-1480.411884,9326.594869,-75383.797003
24992.814801,7994.224174,7254.018232,-75383.797003
24992.817317,13767.830521,6365.771101,-75077.358804
24992.819833,-6513.812290,1776.494261,-74311.263306
24992.822349,7254.018232,2220.617826,-74464.482406
24992.824865,20577.725188,-592.164754,-77682.083497
24992.827380,-4589.276840,-740.205942,-76456.330700
24992.829896,-41895.656317,14063.912898,-73545.167808
24992.832412,29164.114115,15692.365970,-75537.016103
24992.834928,-9474.636058,19837.519246,-72625.853210
24992.837444,-1776.494261,12287.418637,-73545.167808
24992.839960,13619.789333,8438.347739,-74770.920605
24992.842476,-6513.812290,5773.606348,-72932.291410
24992.844992,-1332.370696,3997.112087,-75383.797003
24992.847508,-5921.647536,2072.576638,-79061.055394
24992.850024,-4441.235652,11251.130318,-74464.482406
24992.852540,-1332.370696,12139.377449,-74311.263306
24992.855056,4589.276840,12731.542202,-76303.111601
24992.857572,-4885.359217,12435.459826,-74158.044206
24992.860088,3256.906145,4737.318029,-75843.454302
24992.862604,-5773.606348,2664.741391,-75996.673402
24992.865120,3108.864956,9178.553681,-74924.139704
24992.867636,2960.823768,8438.347739,-76915.987999
24992.870152,5033.400406,9030.512492,-76303.111601
24992.872681,-8142.265362,6069.688724,-70787.224015
24992.875211,-740.205942,6661.853478,-72472.634111
24992.877741,0.000000,12287.418637,-75230.577904
24992.880271,-3108.864956,17024.736666,-75230.577904
24992.882800,1332.370696,16284.530724,-74770.920605
24992.885330,-5921.647536,11547.212695,-74770.920605
24992.887860,4589.276840,7698.141797,-74004.825107
24992.890390,-1184.329507,3997.112087,-73851.606007
24992.892919,444.123565,6513.812290,-75383.797003
24992.895449,-2516.700203,9474.636058,-75690.235202
24992.897979,8142.265362,9326.594869,-75843.454302
24992.900509,-2368.659014,6217.729913,-74617.701505
24992.903038,-5921.647536,4737.318029,-74770.920605
24992.905568,-16432.571912,15100.201217,-74464.482406
24992.908098,35825.967593,10066.800811,-76149.892501
24992.910628,-9770.718434,4589.276840,-74464.482406
24992.913157,-10510.924376,-6513.812290,-79673.931792
24992.915687,31680.814318,-8438.347739,-79673.931792
24992.918217,-22058.137072,-9770.718434,-75690.235202
24992.920747,4589.276840,444.123565,-75996.673402
24992.923276,22206.178260,6069.688724,-75996.673402
24992.925806,-3849.070898,16432.571912,-72166.195912
24992.928336,8734.430116,12879.583391,-74464.482406
24992.930866,20281.642811,7994.224174,-75996.673402
24992.933395,592.164754,2664.741391,-73545.167808
24992.935925,3404.947333,-888.247130,-74004.825107
24992.938455,-1628.453072,-3997.112087,-75690.235202
24992.940985,888.247130,5477.523971,-75077.358804
24992.943514,4737.318029,11547.212695,-75996.673402
24992.946044,6365.771101,7105.977043,-77222.426198
24992.948574,6069.688724,3997.112087,-75383.797003
24992.951104,296.082377,1924.535449,-74464.482406
24992.953579,9770.718434,4589.276840,-76303.111601
24992.956054,3108.864956,5773.606348,-76609.549800
24992.958529,5921.647536,3849.070898,-75996.673402
24992.961004,4145.153275,-2664.741391,-75537.016103
24992.963479,592.164754,2220.617826,-73545.167808
24992.965954,10955.047942,1036.288319,-75690.235202
24992.968429,5033.400406,296.082377,-76915.987999
24992.970904,-2220.617826,3552.988522,-75996.673402
24992.973379,2664.741391,10214.842000,-73851.606007
24992.975854,6217.729913,7550.100608,-76762.768900
24992.978329,10510.924376,5773.606348,-75996.673402
24992.980804,-6365.771101,148.041188,-74311.263306
24992.983279,9918.759623,3552.988522,-74158.044206
24992.985755,24574.837274,-3849.070898,-78907.836294
24992.988230,-20429.683999,-740.205942,-75383.797003
24992.990705,-22206.178260,20281.642811,-76149.892501
24992.993180,31680.814318,15692.365970,-75537.016103
24992.995655,-19393.395680,17172.777854,-72932.291410
24992.998130,7402.059420,10066.800811,-75537.016103
24993.000605,17912.983796,2368.659014,-76609.549800
24993.003080,-17024.736666,4589.276840,-71859.757712
24993.005555,2368.659014,2368.659014,-76609.549800
24993.008030,-4293.194464,5329.482782,-77528.864398
24993.010505,-2960.823768,10214.842000,-74924.139704
24993.012980,740.205942,12435.459826,-74004.825107
24993.015455,3108.864956,11547.212695,-74924.139704
24993.017930,-5181.441594,13175.665768,-73085.510509
24993.020406,-1776.494261,3997.112087,-74770.920605
24993.022881,888.247130,4737.318029,-74004.825107
24993.025356,2368.659014,7846.182985,-75383.797003
24993.027831,6809.894666,9474.636058,-77222.426198
24993.030306,-5921.647536,8290.306550,-75537.016103
24993.032781,592.164754,3849.070898,-74158.044206
24993.035256,-8882.471304,8734.430116,-74464.482406
24993.037731,-148.041188,14804.118840,-74617.701505
24993.040206,-444.123565,17468.860231,-75843.454302
24993.042681,-2516.700203,16728.654289,-75537.016103
24993.045156,6957.935855,7402.059420,-75383.797003
24993.047631,-2516.700203,1184.329507,-74311.263306
24993.050106,740.205942,2516.700203,-74617.701505
24993.052606,-8586.388927,7105.977043,-75383.797003
24993.055107,11547.212695,11547.212695,-76149.892501
24993.057607,-2812.782580,9030.512492,-75383.797003
24993.060107,-5921.647536,7254.018232,-74158.044206
24993.062607,-14656.077652,14359.995275,-74464.482406
24993.065107,37158.338288,5773.606348,-76762.768900
24993.067608,-15396.283594,4441.235652,-73545.167808
24993.070108,-7402.059420,-1184.329507,-74617.701505
24993.072608,33161.226202,-3701.029710,-77528.864398
24993.075108,-19689.478057,-9030.512492,-74158.044206
24993.077608,6069.688724,296.082377,-75996.673402
24993.080108,24130.713709,7550.100608,-76149.892501
24993.082609,-6513.812290,17912.983796,-73085.510509
24993.085109,9918.759623,14508.036463,-74617.701505
24993.087609,20429.683999,8882.471304,-76609.549800
24993.090109,-2664.741391,2368.659014,-74464.482406
24993.092609,11547.212695,-2516.700203,-74464.482406
24993.095109,-3552.988522,-4441.235652,-76609.549800
24993.097610,2072.576638,5477.523971,-75077.358804
24993.100110,2960.823768,13619.789333,-74464.482406
24993.102610,8882.471304,6365.771101,-76456.330700
24993.105110,-5033.400406,6957.935855,-73851.606007
24993.107610,12139.377449,296.082377,-74617.701505
24993.110110,2960.823768,5477.523971,-74617.701505
24993.112611,9326.594869,3256.906145,-77222.426198
24993.115111,5033.400406,1776.494261,-77528.864398
24993.117611,3108.864956,-2220.617826,-76915.987999
24993.120111,10955.047942,1184.329507,-74924.139704
24993.122611,-1184.329507,-1036.288319,-75843.454302
24993.125111,5625.565159,3552.988522,-75230.577904
24993.127612,-3256.906145,9326.594869,-75537.016103
24993.130112,9326.594869,9622.677246,-75537.016103
24993.132612,8290.306550,4737.318029,-76915.987999
24993.135112,-6217.729913,-740.205942,-75230.577904
24993.137612,3552.988522,1332.370696,-74158.044206
24993.140112,26203.290347,-1332.370696,-76609.549800
24993.142613,-17616.901420,-2960.823768,-75843.454302
24993.145113,-33161.226202,15544.324782,-74464.482406
24993.147613,26647.413912,21465.972318,-73851.606007
24993.150113,-17764.942608,22354.219448,-72319.415011
24993.152633,3108.864956,14952.160028,-74617.701505
24993.155154,15544.324782,5773.606348,-75843.454302
24993.157674,-3552.988522,4293.194464,-73238.729609
24993.160195,-2812.782580,1332.370696,-75230.577904
24993.162715,-3997.112087,2368.659014,-78601.398095
24993.165235,-1332.370696,10955.047942,-75077.358804
24993.167756,-2664.741391,13323.706956,-74311.263306
24993.170276,5033.400406,12731.542202,-76303.111601
24993.172796,-6957.935855,11695.253884,-74617.701505
24993.175317,-2516.700203,5773.606348,-74617.701505
24993.177837,-888.247130,3256.906145,-75690.235202
24993.180358,-1036.288319,10955.047942,-75537.016103
24993.182878,6809.894666,6957.935855,-77682.083497
24993.185398,148.041188,9030.512492,-74617.701505
24993.187919,-10066.800811,5033.400406,-72932.291410
24993.190439,-296.082377,8438.347739,-74617.701505
24993.192959,-10362.883188,16136.489536,-75230.577904
24993.195480,3108.864956,18357.107362,-75383.797003
24993.198000,-444.123565,15988.448347,-75383.797003
24993.200520,9178.553681,4293.194464,-75537.016103
24993.203041,-8438.347739,1776.494261,-74158.044206
24993.205561,-4737.318029,3108.864956,-74004.825107
24993.208082,1036.288319,12139.377449,-75230.577904
24993.210602,4589.276840,10807.006753,-75843.454302
24993.213122,-1332.370696,9770.718434,-74924.139704
24993.215643,-17616.901420,9474.636058,-73391.948708
24993.218163,17912.983796,12879.583391,-74464.482406
24993.220683,18061.024985,5329.482782,-75537.016103
24993.223204,-25018.960840,10362.883188,-72012.976812
24993.225724,36566.173535,1776.494261,-77222.426198
24993.228245,-14063.912898,-11843.295072,-75996.673402
24993.230765,-11547.212695,-6513.812290,-73391.948708
24993.233285,6513.812290,2664.741391,-77682.083497
24993.235806,-13323.706956,13175.665768,-75537.016103
24993.238326,1776.494261,17172.777854,-73851.606007
24993.240846,19097.313304,10362.883188,-76149.892501
24993.243367,3108.864956,888.247130,-76456.330700
24993.245887,9326.594869,-3256.906145,-75690.235202
24993.248407,2664.741391,-6957.935855,-76609.549800
24993.250928,-1628.453072,-148.041188,-76915.987999
24993.253463,6217.729913,12879.583391,-74311.263306
24993.255999,11103.089130,8142.265362,-77528.864398
24993.258535,-8290.306550,9622.677246,-73085.510509
24993.261070,10362.883188,296.082377,-74770.920605
24993.263606,2072.576638,5181.441594,-74464.482406
24993.266141,10214.842000,1924.535449,-75843.454302
24993.268677,3256.906145,1480.411884,-76762.768900
24993.271212,6217.729913,-1628.453072,-77375.645298
24993.273748,14508.036463,-3552.988522,-75996.673402
24993.276283,-4737.318029,1628.453072,-74158.044206
24993.278819,2960.823768,5773.606348,-75843.454302
24993.281354,5181.441594,10807.006753,-76609.549800
24993.283890,4885.359217,12435.459826,-74464.482406
24993.286426,11843.295072,5181.441594,-74924.139704
24993.288961,-5477.523971,-592.164754,-75383.797003
24993.291497,13915.871710,5033.400406,-74004.825107
24993.294032,20873.807564,-3404.947333,-76915.987999
24993.296568,-37454.420665,6661.853478,-72779.072310
24993.299103,1924.535449,20725.766376,-74617.701505
24993.301639,23538.548956,20133.601622,-73391.948708
24993.304174,-21317.931130,16876.695478,-72472.634111
24993.306710,4737.318029,12287.418637,-75383.797003
24993.309246,22502.260637,1628.453072,-76609.549800
24993.311781,-25759.166782,2368.659014,-72319.415011
24993.314317,12435.459826,-148.041188,-79214.274493
24993.316852,-13175.665768,3404.947333,-75383.797003
24993.319388,5477.523971,11103.089130,-74311.263306
24993.321923,592.164754,15100.201217,-73238.729609
24993.324459,1776.494261,14508.036463,-75383.797003
24993.326994,-5625.565159,13767.830521,-74311.263306
24993.329530,4293.194464,2220.617826,-75077.358804
24993.332066,-7550.100608,6957.935855,-73391.948708
24993.334601,13471.748144,5329.482782,-77682.083497
24993.337137,-2516.700203,10955.047942,-75537.016103
24993.339672,296.082377,6957.935855,-75230.577904
24993.342208,-5773.606348,9622.677246,-72166.195912
24993.344743,-5625.565159,10658.965565,-75383.797003
24993.347279,-5477.523971,18801.230927,-75230.577904
24993.349814,9622.677246,16728.654289,-76303.111601
24993.352350,592.164754,7698.141797,-74770.920605
24993.354897,888.247130,592.164754,-75996.673402
24993.357444,-10214.842000,888.247130,-73545.167808
24993.359991,3701.029710,6513.812290,-74004.825107
24993.362538,3404.947333,10807.006753,-76609.549800
24993.365084,-2072.576638,11251.130318,-75996.673402
24993.367631,-14952.160028,14952.160028,-73851.606007
24993.370178,13323.706956,14656.077652,-74004.825107
24993.372725,888.247130,1036.288319,-74004.825107
24993.375272,-17320.819043,1776.494261,-72779.072310
24993.377819,33457.308578,-740.205942,-75996.673402
24993.380366,-3849.070898,-6513.812290,-75230.577904
24993.382913,-18505.148550,-3701.029710,-72472.634111
24993.385460,9622.677246,4737.318029,-75077.358804
24993.388007,-10066.800811,9622.677246,-73851.606007
24993.390553,-4441.235652,15396.283594,-73698.386908
24993.393100,21614.013506,13027.624579,-75690.235202
24993.395647,5625.565159,5773.606348,-74617.701505
24993.398194,5181.441594,-4737.318029,-75537.016103
24993.400741,6217.729913,-9326.594869,-76609.549800
24993.403288,-2664.741391,-5181.441594,-75537.016103
24993.405835,7254.018232,8290.306550,-75077.358804
24993.408382,9030.512492,11695.253884,-75383.797003
24993.410929,0.000000,9918.759623,-72932.291410
24993.413476,6365.771101,1628.453072,-74924.139704
24993.416023,5625.565159,4293.194464,-74617.701505
24993.418569,888.247130,4885.359217,-74924.139704
24993.421116,9326.594869,296.082377,-77222.426198
24993.423663,8438.347739,-1332.370696,-76456.330700
24993.426210,-148.041188,-4145.153275,-74617.701505
24993.428757,4145.153275,1184.329507,-74158.044206
24993.431304,-1628.453072,9178.553681,-75077.358804
24993.433851,6957.935855,14063.912898,-75537.016103
24993.436398,11251.130318,7698.141797,-75230.577904
24993.438945,-6957.935855,148.041188,-74924.139704
24993.441492,3849.070898,-5033.400406,-77069.207099
24993.444038,22206.178260,-3552.988522,-77069.207099
24993.446585,-17764.942608,-3701.029710,-75383.797003
24993.449132,-30052.361245,19985.560434,-75996.673402
24993.451679,37898.544230,14063.912898,-76303.111601
24993.454226,-21169.889941,19097.313304,-72166.195912
24993.456782,1480.411884,12139.377449,-74924.139704
24993.459339,19689.478057,8734.430116,-73851.606007
24993.461895,-11843.295072,6809.894666,-73391.948708
24993.464451,-592.164754,4293.194464,-75843.454302
24993.467007,-1036.288319,2664.741391,-78601.398095
24993.469564,-5181.441594,8586.388927,-74158.044206
24993.472120,5477.523971,8882.471304,-75383.797003
24993.474676,-2664.741391,14508.036463,-74924.139704
24993.477232,-2960.823768,15248.242405,-73698.386908
24993.479788,1036.288319,7105.977043,-74617.701505
24993.482345,-1776.494261,4441.235652,-73851.606007
24993.484901,2516.700203,6661.853478,-75077.358804
24993.487457,2960.823768,9030.512492,-76609.549800
24993.490013,-4293.194464,7994.224174,-75383.797003
24993.492570,444.123565,10066.800811,-73698.386908
24993.495126,-10510.924376,11843.295072,-74004.825107
24993.497682,3552.988522,15544.324782,-74617.701505
24993.500238,-148.041188,14656.077652,-74617.701505
24993.502795,4589.276840,11399.171507,-74311.263306
24993.505351,296.082377,2220.617826,-76303.111601
24993.507907,-10510.924376,4589.276840,-74464.482406
24993.510463,9474.636058,5033.400406,-74770.920605
24993.513020,-1332.370696,6809.894666,-75537.016103
24993.515576,-10362.883188,11251.130318,-75690.235202
24993.518132,296.082377,20429.683999,-74464.482406
24993.520688,35529.885216,6217.729913,-76609.549800
24993.523245,-35974.008781,-2220.617826,-74924.139704
24993.525801,10362.883188,-6365.771101,-78448.178995
24993.528357,30792.567187,-6957.935855,-79367.493593
24993.530913,-13767.830521,-7254.018232,-75537.016103
24993.533470,5625.565159,-2516.700203,-76149.892501
24993.536026,19985.560434,5625.565159,-76609.549800
24993.538582,-5921.647536,15396.283594,-72779.072310
24993.541138,5181.441594,14063.912898,-74158.044206
24993.543695,9474.636058,10955.047942,-74617.701505
24993.546251,3256.906145,4441.235652,-75077.358804
24993.548807,1332.370696,-6217.729913,-75843.454302
24993.551363,444.123565,-6957.935855,-76149.892501
24993.553920,3552.988522,5033.400406,-74464.482406
24993.556476,4885.359217,11399.171507,-75077.358804
24993.559038,6661.853478,8734.430116,-75537.016103
24993.561601,1628.453072,6513.812290,-74464.482406
24993.564163,9622.677246,3552.988522,-74004.825107
24993.566726,1924.535449,-592.164754,-75843.454302
24993.569288,3997.112087,1184.329507,-75690.235202
24993.571851,14508.036463,-1184.329507,-77528.864398
24993.574413,-5329.482782,-2220.617826,-76149.892501
24993.576976,1628.453072,1480.411884,-73698.386908
24993.579538,2812.782580,9178.553681,-74311.263306
24993.582101,9030.512492,10955.047942,-75843.454302
24993.584663,11399.171507,10362.883188,-75230.577904
24993.587226,-5921.647536,1776.494261,-74464.482406
24993.589788,9030.512492,740.205942,-75996.673402
24993.592351,25907.207970,-5477.523971,-76762.768900
24993.594913,-33457.308578,1332.370696,-73391.948708
24993.597476,-1480.411884,21762.054695,-75996.673402
24993.600038,30496.484810,17172.777854,-75077.358804
24993.602601,-14063.912898,19541.436869,-72319.415011
24993.605163,-4145.153275,10955.047942,-75690.235202
24993.607725,23834.631332,7846.182985,-74924.139704
24993.610288,-21021.848753,5625.565159,-72319.415011
24993.612850,1480.411884,3256.906145,-77988.521696
24993.615413,148.041188,4885.359217,-76149.892501
24993.617975,-7402.059420,9622.677246,-73698.386908
24993.620538,7846.182985,10658.965565,-74004.825107
24993.623100,-4589.276840,12287.418637,-74924.139704
24993.625663,-2368.659014,12731.542202,-74004.825107
24993.628225,2072.576638,9030.512492,-74924.139704
24993.630788,-11695.253884,6217.729913,-74004.825107
24993.633350,11103.089130,6809.894666,-76609.549800
24993.635913,-3552.988522,8734.430116,-75690.235202
24993.638475,3256.906145,8882.471304,-73851.606007
24993.641038,-11843.295072,11547.212695,-73238.729609
24993.643600,0.000000,12435.459826,-74617.701505
24993.646163,-2960.823768,14211.954086,-75383.797003
24993.648725,740.205942,13619.789333,-74924.139704
24993.651288,2072.576638,8438.347739,-74770.920605
24993.653850,-7698.141797,6513.812290,-74770.920605
24993.656413,6957.935855,2812.782580,-75690.235202
24993.658975,2664.741391,4737.318029,-74770.920605
24993.661543,-10658.965565,6957.935855,-74617.701505
24993.664111,-6365.771101,16284.530724,-76149.892501
24993.666679,25907.207970,11991.336260,-76149.892501
24993.669247,2812.782580,6069.688724,-72932.291410
24993.671815,9622.677246,-5773.606348,-79673.931792
24993.674383,24870.919651,-6809.894666,-78907.836294
24993.676950,-12879.583391,-8290.306550,-76149.892501
24993.679518,-592.164754,-5625.565159,-77682.083497
24993.682086,20133.601622,2960.823768,-77528.864398
24993.684654,-4885.359217,11991.336260,-72472.634111
24993.687222,6661.853478,13767.830521,-73545.167808
24993.689790,13175.665768,12583.501014,-75843.454302
24993.692358,11251.130318,6957.935855,-74004.825107
24993.694926,-148.041188,-1480.411884,-74617.701505
24993.697494,3256.906145,-5773.606348,-76303.111601
24993.700062,296.082377,-592.164754,-75230.577904
24993.702630,3701.029710,9474.636058,-75537.016103
24993.705197,6513.812290,6217.729913,-76456.330700
24993.707765,4737.318029,7846.182985,-73545.167808
24993.710333,2516.700203,3849.070898,-74770.920605
24993.712901,9030.512492,1332.370696,-76609.549800
24993.715469,6365.771101,-148.041188,-75383.797003
24993.718037,7254.018232,-1628.453072,-76456.330700
24993.720605,740.205942,-1924.535449,-76303.111601
24993.723173,-4737.318029,3108.864956,-74924.139704
24993.725741,7550.100608,7994.224174,-74004.825107
24993.728309,7254.018232,11843.295072,-75077.358804
24993.730876,12287.418637,7550.100608,-76456.330700
24993.733444,-7698.141797,6217.729913,-73545.167808
24993.736012,18061.024985,2220.617826,-74924.139704
24993.738580,11991.336260,-6957.935855,-78141.740796
24993.741148,-50334.004056,8882.471304,-72472.634111
24993.743716,24130.713709,15396.283594,-74311.263306
24993.746284,14508.036463,20725.766376,-75230.577904
24993.748852,-30792.567187,13767.830521,-73698.386908
24993.751420,5329.482782,9030.512492,-74924.139704
24993.753988,14063.912898,4589.276840,-74464.482406
24993.756555,-22206.178260,6217.729913,-75383.797003
24993.759123,8438.347739,3997.112087,-78448.178995
24993.761691,-1628.453072,7105.977043,-75843.454302
24993.764261,-1628.453072,10214.842000,-73851.606007
24993.766834,8734.430116,11103.089130,-74004.825107
24993.769406,-8586.388927,9030.512492,-75690.235202
24993.771979,6661.853478,12879.583391,-75077.358804
24993.774551,-19541.436869,9326.594869,-74004.825107
24993.777123,8734.430116,6661.853478,-75690.235202
24993.779696,-6661.853478,9326.594869,-76762.768900
24993.782268,11399.171507,7846.182985,-76303.111601
24993.784840,-11843.295072,10510.924376,-74158.044206
24993.787413,4885.359217,10955.047942,-73085.510509
24993.789985,-7254.018232,13619.789333,-74311.263306
24993.792558,-1480.411884,11991.336260,-75690.235202
24993.795130,7994.224174,11399.171507,-74924.139704
24993.797702,-13471.748144,9770.718434,-75383.797003
24993.800275,15100.201217,4589.276840,-75843.454302
24993.802847,-1184.329507,3256.906145,-74311.263306
24993.805420,-10658.965565,4145.153275,-74464.482406
24993.807992,-10658.965565,14359.995275,-75537.016103
24993.810564,25315.043216,11399.171507,-75843.454302
24993.813137,11251.130318,11843.295072,-74311.263306
24993.815709,-15544.324782,7994.224174,-71859.757712
24993.818282,26795.455100,-3997.112087,-76609.549800
24993.820854,-18801.230927,-7402.059420,-75996.673402
24993.823426,-6809.894666,-6217.729913,-76915.987999
24993.825999,15248.242405,1924.535449,-79061.055394
24993.828571,-1332.370696,11547.212695,-73391.948708
24993.831144,1924.535449,12731.542202,-74464.482406
24993.833716,17320.819043,9918.759623,-75996.673402
24993.836288,7994.224174,6513.812290,-75383.797003
24993.838861,740.205942,444.123565,-73698.386908
24993.841433,148.041188,-6365.771101,-76762.768900
24993.844005,5329.482782,-1036.288319,-75690.235202
24993.846578,3997.112087,7846.182985,-74004.825107
24993.849150,4145.153275,9326.594869,-75230.577904
24993.851723,8438.347739,6513.812290,-74464.482406
24993.854295,3552.988522,4737.318029,-74464.482406
24993.856867,1184.329507,148.041188,-76915.987999
24993.859440,14952.160028,-148.041188,-75996.673402
24993.862012,-2664.741391,0.000000,-75077.358804
24993.864585,6513.812290,-1628.453072,-76456.330700
24993.867159,-7105.977043,5477.523971,-74770.920605
24993.869734,12435.459826,8438.347739,-74004.825107
24993.872309,9326.594869,9178.553681,-74924.139704
24993.874884,444.123565,4293.194464,-75843.454302
24993.877458,-4441.235652,2664.741391,-74617.701505
24993.880033,24574.837274,-2664.741391,-78294.959896
24993.882608,-18357.107362,-2960.823768,-75230.577904
24993.885183,-34937.720462,15840.407159,-74770.920605
24993.887757,39675.038491,12139.377449,-76303.111601
24993.890332,-12287.418637,20429.683999,-74158.044206
24993.892907,-7254.018232,15396.283594,-72012.976812
24993.895481,10658.965565,10658.965565,-75230.577904
24993.898056,7254.018232,6513.812290,-72166.195912
24993.900631,-3552.988522,7698.141797,-74311.263306
24993.903206,1036.288319,4737.318029,-77682.083497
24993.905780,-3404.947333,9622.677246,-74158.044206
24993.908355,1628.453072,8882.471304,-74464.482406
24993.910930,3404.947333,9622.677246,-75537.016103
24993.913505,-10066.800811,10066.800811,-74924.139704
24993.916079,5181.441594,9770.718434,-75383.797003
24993.918654,-12287.418637,7550.100608,-75383.797003
24993.921229,7994.224174,8734.430116,-75537.016103
24993.923804,-3108.864956,10658.965565,-76456.330700
24993.926378,148.041188,9326.594869,-74617.701505
24993.928953,-4885.359217,12731.542202,-72472.634111
24993.931528,740.205942,11547.212695,-73851.606007
24993.934102,-7550.100608,10955.047942,-74770.920605
24993.936677,5773.606348,11251.130318,-75383.797003
24993.939252,-9474.636058,11991.336260,-74311.263306
24993.941827,9622.677246,6365.771101,-76303.111601
24993.944401,4885.359217,3108.864956,-75383.797003
24993.946976,-13915.871710,2812.782580,-74311.263306
24993.949551,-8142.265362,13471.748144,-75230.577904
24993.952126,28423.908173,10658.965565,-77835.302597
24993.954700,3552.988522,10658.965565,-73851.606007
24993.957275,-13619.789333,7994.224174,-71553.319513
24993.959850,26203.290347,-5625.565159,-77988.521696
24993.962425,-15988.448347,-7402.059420,-75537.016103
24993.964999,-2960.823768,-5033.400406,-76915.987999
24993.967574,16432.571912,0.000000,-79520.712692
24993.970151,-3849.070898,9918.759623,-74004.825107
24993.972728,7550.100608,12583.501014,-74924.139704
24993.975304,10955.047942,9326.594869,-76149.892501
24993.977881,6513.812290,8586.388927,-73851.606007
24993.980458,888.247130,-740.205942,-74770.920605
24993.983035,7698.141797,-5033.400406,-76915.987999
24993.985612,-9178.553681,2368.659014,-74617.701505
24993.988189,13175.665768,9030.512492,-75690.235202
24993.990765,-592.164754,6217.729913,-76303.111601
24993.993342,10807.006753,5181.441594,-74311.263306
24993.995919,-1776.494261,3404.947333,-74924.139704
24993.998496,20133.601622,-1628.453072,-77222.426198
24994.001073,-6957.935855,0.000000,-76149.892501
24994.003649,12879.583391,-1480.411884,-76456.330700
24994.006226,-11399.171507,1776.494261,-76303.111601
24994.008803,15692.365970,4589.276840,-75383.797003
24994.011380,5033.400406,9474.636058,-74770.920605
24994.013957,888.247130,2072.576638,-76456.330700
24994.016533,-2516.700203,3701.029710,-75230.577904
24994.019110,16136.489536,2368.659014,-76915.987999
24994.021687,6513.812290,-5477.523971,-77069.207099
24994.024264,-51222.251186,9474.636058,-72779.072310
24994.026841,29756.278868,14211.954086,-75996.673402
24994.029417,11103.089130,20873.807564,-74004.825107
24994.031994,-27535.661042,11843.295072,-73545.167808
24994.034571,4885.359217,11843.295072,-75077.358804
24994.037148,18061.024985,4589.276840,-73698.386908
24994.039725,-22058.137072,6957.935855,-74924.139704
24994.042301,8438.347739,5773.606348,-77835.302597
24994.044878,-3108.864956,7402.059420,-75537.016103
24994.047455,-444.123565,10214.842000,-72779.072310
24994.050032,6661.853478,10807.006753,-74004.825107
24994.052609,-740.205942,10066.800811,-74617.701505
24994.055186,-12879.583391,11991.336260,-73545.167808
24994.057762,10955.047942,5033.400406,-76149.892501
24994.060339,-15692.365970,9770.718434,-73698.386908
24994.062916,10807.006753,10658.965565,-75843.454302
24994.065493,-4293.194464,12287.418637,-76609.549800
24994.068070,2368.659014,10066.800811,-74158.044206
24994.070646,-6957.935855,12583.501014,-73391.948708
24994.073224,740.205942,9770.718434,-75230.577904
24994.075801,-5181.441594,10510.924376,-75537.016103
24994.078379,740.205942,12583.501014,-74617.701505
24994.080956,5329.482782,8734.430116,-75843.454302
24994.083534,7550.100608,2368.659014,-76915.987999
24994.086111,-18061.024985,2368.659014,-73391.948708
24994.088689,-10214.842000,13471.748144,-74464.482406
24994.091267,36270.091158,6217.729913,-78141.740796
24994.093844,-22206.178260,4145.153275,-74004.825107
24994.096422,-2072.576638,2072.576638,-78294.959896
24994.098999,31236.690752,-6513.812290,-80440.027290
24994.101577,-10955.047942,-6069.688724,-73851.606007
24994.104154,11843.295072,-1332.370696,-76915.987999
24994.106732,19393.395680,2960.823768,-76915.987999
24994.109309,-4737.318029,11843.295072,-75383.797003
24994.111887,10658.965565,12287.418637,-74004.825107
24994.114464,11103.089130,9326.594869,-76149.892501
24994.117042,3256.906145,5477.523971,-74770.920605
24994.119619,8290.306550,-296.082377,-74311.263306
24994.122197,-1924.535449,-5625.565159,-77835.302597
24994.124774,-1332.370696,6513.812290,-75537.016103
24994.127352,9474.636058,7402.059420,-75996.673402
24994.129929,3849.070898,5773.606348,-77222.426198
24994.132507,5181.441594,3997.112087,-73545.167808
24994.135084,8290.306550,1480.411884,-74924.139704
24994.137662,8142.265362,-740.205942,-75537.016103
24994.140239,4441.235652,-1184.329507,-76915.987999
24994.142817,-2220.617826,1924.535449,-75843.454302
24994.145394,3108.864956,1776.494261,-77528.864398
24994.147972,9622.677246,6809.894666,-74617.701505
24994.150549,16284.530724,6365.771101,-74158.044206
24994.153127,-6513.812290,6661.853478,-74158.044206
24994.155704,11399.171507,6661.853478,-74924.139704
24994.158282,15692.365970,2516.700203,-76303.111601
24994.160859,-37750.503042,3108.864956,-74158.044206
24994.163437,5181.441594,19541.436869,-75537.016103
24994.166014,23834.631332,16580.613101,-73851.606007
24994.168592,-14952.160028,13915.871710,-73085.510509
24994.171170,296.082377,5921.647536,-75843.454302
24994.173747,12139.377449,6809.894666,-75077.358804
24994.176325,-14359.995275,4885.359217,-73238.729609
24994.178902,-7994.224174,7105.977043,-75383.797003
24994.181479,7698.141797,8734.430116,-75537.016103
24994.184057,-2072.576638,10510.924376,-73851.606007
24994.186634,1332.370696,10066.800811,-74004.825107
24994.189212,-3701.029710,10214.842000,-74464.482406
24994.191789,1628.453072,10658.965565,-74924.139704
24994.194367,-592.164754,6217.729913,-75383.797003
24994.196944,-8734.430116,8290.306550,-75230.577904
24994.199522,2960.823768,10362.883188,-76149.892501
24994.202099,592.164754,10510.924376,-75690.235202
24994.204677,-1628.453072,10955.047942,-73851.606007
24994.207254,-740.205942,11251.130318,-73238.729609
24994.209832,-3849.070898,12435.459826,-74617.701505
24994.212409,-3108.864956,11103.089130,-75996.673402
24994.214987,-7550.100608,15248.242405,-74464.482406
24994.217564,11695.253884,9326.594869,-75537.016103
24994.220142,7550.100608,2812.782580,-76149.892501
24994.222719,-24426.796086,2664.741391,-73545.167808
24994.225297,3552.988522,14804.118840,-74770.920605
24994.227874,34493.596897,6069.688724,-77682.083497
24994.230452,-38490.708984,1924.535449,-75843.454302
24994.233029,9622.677246,-2664.741391,-79214.274493
24994.235607,36270.091158,-4885.359217,-79214.274493
24994.238184,-19985.560434,-9918.759623,-75077.358804
24994.240762,8586.388927,-1776.494261,-75843.454302
24994.243339,5033.400406,6661.853478,-76456.330700
24994.245917,-1628.453072,11991.336260,-74158.044206
24994.248494,2516.700203,10214.842000,-74617.701505
24994.251072,10510.924376,7698.141797,-74464.482406
24994.253649,5477.523971,5033.400406,-73545.167808
24994.256227,6957.935855,-592.164754,-74464.482406
24994.258805,-5033.400406,-296.082377,-75690.235202
24994.261383,9770.718434,1776.494261,-76609.549800
24994.263962,9918.759623,8142.265362,-76609.549800
24994.266540,3997.112087,5773.606348,-75843.454302
24994.269118,6661.853478,1924.535449,-74617.701505
24994.271696,4885.359217,-444.123565,-75383.797003
24994.274275,6513.812290,-444.123565,-75383.797003
24994.276853,4885.359217,1332.370696,-76609.549800
24994.279431,-4885.359217,3552.988522,-76456.330700
24994.282010,7105.977043,6069.688724,-75690.235202
24994.284588,18949.272115,4441.235652,-74617.701505
24994.287166,-12879.583391,4589.276840,-73698.386908
24994.289745,17468.860231,5921.647536,-75077.358804
24994.292323,10066.800811,3701.029710,-77069.207099
24994.294901,8734.430116,1332.370696,-77069.207099
24994.297480,-47965.345042,14211.954086,-73698.386908
24994.300058,30644.525999,9474.636058,-78141.740796
24994.302636,-4737.318029,19541.436869,-73545.167808
24994.305214,-11991.336260,12139.377449,-74311.263306
24994.307793,7254.018232,6069.688724,-76149.892501
24994.310371,3256.906145,6069.688724,-74311.263306
24994.312949,-10510.924376,7254.018232,-75537.016103
24994.315528,-2812.782580,8438.347739,-77375.645298
24994.318106,148.041188,11251.130318,-75077.358804
24994.320684,4737.318029,11695.253884,-73851.606007
24994.323263,2368.659014,8290.306550,-74924.139704
24994.325841,-9918.759623,9178.553681,-74158.044206
24994.328419,444.123565,3997.112087,-76456.330700
24994.330998,-3108.864956,9918.759623,-74924.139704
24994.333576,-2368.659014,10066.800811,-76456.330700
24994.336154,3404.947333,11695.253884,-76915.987999
24994.338733,592.164754,8438.347739,-75077.358804
24994.341311,-592.164754,11103.089130,-72932.291410
24994.343889,-2220.617826,10658.965565,-74924.139704
24994.346467,-6661.853478,13175.665768,-75077.358804
24994.349046,148.041188,12731.542202,-75077.358804
24994.351624,3997.112087,11843.295072,-75077.358804
24994.354202,10066.800811,2072.576638,-75843.454302
24994.356781,-17024.736666,2960.823768,-73085.510509
24994.359359,-9326.594869,11991.336260,-75383.797003
24994.361937,45152.562462,3108.864956,-77069.207099
24994.364516,-28868.031738,2960.823768,-76149.892501
24994.367094,1480.411884,592.164754,-77375.645298
24994.369673,31828.855506,-3701.029710,-79673.931792
24994.372251,-13175.665768,-8734.430116,-74464.482406
24994.374830,12287.418637,-888.247130,-77222.426198
24994.377408,15248.242405,4885.359217,-75230.577904
24994.379987,-2368.659014,12139.377449,-73851.606007
24994.382565,1924.535449,10066.800811,-75537.016103
24994.385144,10362.883188,6957.935855,-74004.825107
24994.387722,-148.041188,2072.576638,-74311.263306
24994.390301,9622.677246,-740.205942,-74464.482406
24994.392879,-6513.812290,-740.205942,-74770.920605
24994.395458,6069.688724,7254.018232,-76149.892501
24994.398036,5033.400406,9178.553681,-75537.016103
24994.400614,9326.594869,3404.947333,-75537.016103
24994.403193,-444.123565,1332.370696,-74311.263306
24994.405771,10510.924376,-1184.329507,-75230.577904
24994.408350,5329.482782,-592.164754,-76303.111601
24994.410928,-7550.100608,1924.535449,-75690.235202
24994.413507,7698.141797,5477.523971,-76149.892501
24994.416085,11103.089130,3256.906145,-76609.549800
24994.418664,7105.977043,4293.194464,-73545.167808
24994.421242,6809.894666,1036.288319,-75230.577904
24994.423821,6809.894666,4145.153275,-76915.987999
24994.426399,11991.336260,-1776.494261,-76303.111601
24994.428978,-37898.544230,9770.718434,-72166.195912
24994.431556,9178.553681,18357.107362,-75537.016103
24994.434135,14359.995275,20281.642811,-73545.167808
24994.436713,-14952.160028,14359.995275,-72166.195912
24994.439292,3256.906145,7254.018232,-74617.701505
24994.441870,6809.894666,3256.906145,-74924.139704
24994.444448,-12287.418637,5329.482782,-73851.606007
24994.447027,-1480.411884,8882.471304,-78754.617194
24994.449605,-2516.700203,11103.089130,-75537.016103
24994.452184,444.123565,12435.459826,-73698.386908
24994.454762,4293.194464,11103.089130,-73391.948708
24994.457341,148.041188,6809.894666,-74464.482406
24994.459919,-3256.906145,6217.729913,-74311.263306
24994.462498,4145.153275,8142.265362,-76149.892501
24994.465075,-12287.418637,11991.336260,-74924.139704
24994.467653,5773.606348,11991.336260,-77069.207099
24994.470230,3552.988522,9918.759623,-74770.920605
24994.472808,-4589.276840,10362.883188,-72012.976812
24994.475385,1628.453072,9622.677246,-74158.044206
24994.477963,-6661.853478,12287.418637,-74004.825107
24994.480540,-5773.606348,15248.242405,-74617.701505
24994.483118,5921.647536,14656.077652,-76456.330700
24994.485695,7402.059420,1776.494261,-76149.892501
24994.488273,-19245.354492,2960.823768,-73391.948708
24994.490850,-2072.576638,12583.501014,-74464.482406
24994.493428,41451.532752,3997.112087,-76915.987999
24994.496006,-32272.979071,2220.617826,-75537.016103
24994.498583,7254.018232,0.000000,-78448.178995
24994.501161,29312.155303,-1480.411884,-77682.083497
24994.503738,-15840.407159,-10362.883188,-74770.920605
24994.506316,16876.695478,-296.082377,-77682.083497
24994.508893,8142.265362,5773.606348,-76149.892501
24994.511471,1036.288319,13175.665768,-74617.701505
24994.514048,3849.070898,11103.089130,-75690.235202
24994.516626,10066.800811,8438.347739,-75383.797003
24994.519203,4737.318029,3997.112087,-72779.072310
24994.521781,8586.388927,148.041188,-73085.510509
24994.524358,-5625.565159,-148.041188,-74004.825107
24994.526936,11103.089130,6513.812290,-76609.549800
24994.529513,6809.894666,9474.636058,-75996.673402
24994.532091,9030.512492,3256.906145,-75843.454302
24994.534668,740.205942,2072.576638,-74617.701505
24994.537246,12435.459826,-2072.576638,-76149.892501
24994.539823,5329.482782,-148.041188,-76149.892501
24994.542401,-7254.018232,1924.535449,-76762.768900
24994.544978,10362.883188,5773.606348,-75230.577904
24994.547556,13619.789333,3256.906145,-76609.549800
24994.550134,-9770.718434,2516.700203,-74311.263306
24994.552711,12287.418637,4885.359217,-74004.825107
24994.555289,14063.912898,3404.947333,-76149.892501
24994.557866,5033.400406,-1628.453072,-77222.426198
24994.560444,-42931.944636,14804.118840,-72166.195912
24994.563021,27091.537477,11251.130318,-77375.645298
24994.565599,2220.617826,20725.766376,-76609.549800
24994.568176,-8882.471304,10362.883188,-72932.291410
24994.570753,9030.512492,7105.977043,-74464.482406
24994.573330,5477.523971,1184.329507,-74617.701505
24994.575907,-13471.748144,6957.935855,-74464.482406
24994.578484,3108.864956,7550.100608,-77682.083497
24994.581061,-4441.235652,13619.789333,-75996.673402
24994.583638,5773.606348,12435.459826,-74004.825107
24994.586215,5625.565159,12435.459826,-73851.606007
24994.588791,-12879.583391,5181.441594,-73698.386908
24994.591368,10510.924376,5477.523971,-74311.263306
24994.593945,-14063.912898,10955.047942,-74464.482406
24994.596522,2072.576638,12287.418637,-77375.645298
24994.599099,-4145.153275,11547.212695,-76609.549800
24994.601676,5329.482782,10066.800811,-74158.044206
24994.604253,-5921.647536,9622.677246,-73698.386908
24994.606830,148.041188,8734.430116,-74004.825107
24994.609407,-8290.306550,15100.201217,-76303.111601
24994.611984,7254.018232,13767.830521,-76149.892501
24994.614561,8734.430116,7550.100608,-75690.235202
24994.617138,-11547.212695,1332.370696,-75996.673402
24994.619715,-20281.642811,5477.523971,-74617.701505
24994.622292,40711.326810,3256.906145,-75996.673402
24994.624869,-4737.318029,8586.388927,-74617.701505
24994.627446,-13915.871710,8882.471304,-74311.263306
24994.630023,32272.979071,740.205942,-77375.645298
24994.632600,-19393.395680,-10807.006753,-75537.016103
24994.635177,-888.247130,-5625.565159,-75383.797003
24994.637754,13027.624579,-1332.370696,-77988.521696
24994.640331,-2960.823768,10510.924376,-74464.482406
24994.642908,4441.235652,11103.089130,-75690.235202
24994.645485,14952.160028,9326.594869,-75537.016103
24994.648062,10807.006753,4737.318029,-75077.358804
24994.650639,12287.418637,592.164754,-73085.510509
24994.653216,-9622.677246,-1628.453072,-75383.797003
24994.655793,13767.830521,3701.029710,-76303.111601
24994.658370,-296.082377,10658.965565,-74464.482406
24994.660947,15840.407159,2220.617826,-76762.768900
24994.663524,-9770.718434,1628.453072,-74464.482406
24994.666101,14359.995275,-2812.782580,-75537.016103
24994.668678,-1332.370696,1924.535449,-75230.577904
24994.671253,2368.659014,2960.823768,-76456.330700
24994.673829,10066.800811,6513.812290,-76456.330700
24994.676405,15692.365970,-148.041188,-77835.302597
24994.678980,-9474.636058,2220.617826,-73698.386908
24994.681556,6957.935855,1776.494261,-74770.920605
24994.684131,16580.613101,3256.906145,-76609.549800
24994.686707,740.205942,296.082377,-76609.549800
24994.689282,-46484.933158,18209.066173,-71246.881314
24994.691858,26647.413912,12583.501014,-77222.426198
24994.694434,-9770.718434,17764.942608,-74464.482406
24994.697009,-5921.647536,9326.594869,-73698.386908
24994.699585,10066.800811,7105.977043,-74617.701505
24994.702160,3701.029710,2072.576638,-73698.386908
24994.704736,-12583.501014,8142.265362,-73391.948708
24994.707311,2368.659014,8586.388927,-77528.864398
24994.709887,-2664.741391,14508.036463,-75690.235202
24994.712462,4293.194464,13175.665768,-74004.825107
24994.715038,8438.347739,6661.853478,-76149.892501
24994.717614,-22206.178260,4293.194464,-75077.358804
24994.720189,16580.613101,3849.070898,-75843.454302
24994.722765,-16876.695478,11103.089130,-76456.330700
24994.725340,7105.977043,12879.583391,-77528.864398
24994.727916,-4145.153275,14508.036463,-75383.797003
24994.730491,4885.359217,11251.130318,-73851.606007
24994.733067,-740.205942,9622.677246,-73391.948708
24994.735643,-10066.800811,12583.501014,-73698.386908
24994.738218,296.082377,14508.036463,-75383.797003
24994.740794,6069.688724,12435.459826,-74924.139704
24994.743369,5921.647536,4737.318029,-75537.016103
24994.745945,-26647.413912,4145.153275,-75383.797003
24994.748520,9918.759623,11251.130318,-74770.920605
24994.751096,36122.049970,2220.617826,-76303.111601
24994.753672,-28423.908173,14359.995275,-71706.538613
24994.756247,43968.232955,6217.729913,-76149.892501
24994.758823,17616.901420,1924.535449,-74158.044206
24994.761398,-17912.983796,-1332.370696,-72166.195912
24994.763974,10807.006753,-592.164754,-74158.044206
24994.766549,-9474.636058,7105.977043,-73391.948708
24994.769125,-296.082377,9918.759623,-73545.167808
24994.771700,1184.329507,10362.883188,-75843.454302
24994.774274,11991.336260,3256.906145,-76762.768900
24994.776849,5477.523971,2664.741391,-74617.701505
24994.779424,6069.688724,-4737.318029,-76915.987999
24994.781999,4737.318029,1184.329507,-76762.768900
24994.784574,3404.947333,8290.306550,-76303.111601
24994.787148,12731.542202,5033.400406,-76456.330700
24994.789723,-444.123565,0.000000,-75077.358804
24994.792298,2812.782580,-888.247130,-74770.920605
24994.794873,3108.864956,3404.947333,-74770.920605
24994.797448,8734.430116,2368.659014,-76149.892501
24994.800023,2960.823768,8142.265362,-74924.139704
24994.802598,19985.560434,296.082377,-76762.768900
24994.805173,-9030.512492,-740.205942,-75537.016103
24994.807748,7994.224174,3256.906145,-74770.920605
24994.810322,20429.683999,4145.153275,-76609.549800
24994.812897,-9474.636058,3404.947333,-75996.673402
24994.815472,-38194.626607,19541.436869,-75690.235202
24994.818047,32421.020260,13915.871710,-75537.016103
24994.820622,-14063.912898,18357.107362,-73545.167808
24994.823197,-9030.512492,11103.089130,-73238.729609
24994.825772,7550.100608,7994.224174,-73085.510509
24994.828347,-4441.235652,1480.411884,-75383.797003
24994.830921,-6365.771101,6661.853478,-75690.235202
24994.833496,-3256.906145,7402.059420,-78294.959896
24994.836071,-5033.400406,13619.789333,-74311.263306
24994.838646,-2516.700203,14359.995275,-73085.510509
24994.841221,19097.313304,6365.771101,-75077.358804
24994.843796,-28719.990550,6217.729913,-73391.948708
24994.846371,24722.878463,3701.029710,-73698.386908
24994.848946,-7105.977043,11991.336260,-76303.111601
24994.851520,-4885.359217,13767.830521,-75843.454302
24994.854095,6957.935855,14211.954086,-75077.358804
24994.856670,-3404.947333,11547.212695,-72932.291410
24994.859245,-1036.288319,10510.924376,-72472.634111
24994.861820,-7846.182985,11399.171507,-75230.577904
24994.864395,6957.935855,13027.624579,-75383.797003
24994.866970,888.247130,8734.430116,-75690.235202
24994.869545,-888.247130,4293.194464,-75383.797003
24994.872119,-13619.789333,10807.006753,-75077.358804
24994.874694,42487.821071,-296.082377,-76149.892501
24994.877227,-25463.084405,2220.617826,-72932.291410
24994.879760,-592.164754,296.082377,-76762.768900
24994.882293,29904.320057,1036.288319,-78601.398095
24994.884826,-19245.354492,-7402.059420,-76915.987999
24994.887359,-2664.741391,-3849.070898,-75537.016103
24994.889892,14063.912898,-3997.112087,-79827.150892
24994.892425,1628.453072,10362.883188,-73851.606007
24994.894958,4589.276840,11991.336260,-74770.920605
24994.897491,8734.430116,11103.089130,-76149.892501
24994.900024,7550.100608,4737.318029,-75690.235202
24994.902557,8586.388927,888.247130,-74004.825107
24994.905090,-6365.771101,-2220.617826,-75537.016103
24994.907623,10214.842000,4293.194464,-76303.111601
24994.910156,3256.906145,8734.430116,-77222.426198
24994.912689,6365.771101,740.205942,-76609.549800
24994.915222,4145.153275,148.041188,-73851.606007
24994.917755,-2220.617826,-1628.453072,-74617.701505
24994.920288,11843.295072,2960.823768,-75996.673402
24994.922821,-148.041188,6513.812290,-75077.358804
24994.925354,20577.725188,3701.029710,-76303.111601
24994.927886,-6365.771101,-1332.370696,-76149.892501
24994.930419,4589.276840,592.164754,-74311.263306
24994.932952,11695.253884,4293.194464,-75996.673402
24994.935485,10066.800811,1184.329507,-75843.454302
24994.938018,-52258.539505,17468.860231,-72932.291410
24994.940551,38638.750172,12139.377449,-77222.426198
24994.943084,-3997.112087,19097.313304,-75843.454302
24994.945617,-16580.613101,11547.212695,-74004.825107
24994.948150,1184.329507,6365.771101,-76609.549800
24994.950683,9474.636058,5033.400406,-74617.701505
24994.953216,-12139.377449,6217.729913,-73698.386908
24994.955749,-888.247130,8290.306550,-76915.987999
24994.958282,-5329.482782,13323.706956,-74004.825107
24994.960815,1628.453072,14952.160028,-73391.948708
24994.963348,8142.265362,9178.553681,-75690.235202
24994.965881,-10658.965565,6217.729913,-75383.797003
24994.968414,8882.471304,4293.194464,-73391.948708
24994.970947,-4145.153275,11103.089130,-76303.111601
24994.973480,-8142.265362,13915.871710,-75690.235202
24994.976013,7402.059420,13323.706956,-75230.577904
24994.978553,-7402.059420,11991.336260,-72932.291410
24994.981094,-444.123565,10955.047942,-73238.729609
24994.983635,-6957.935855,11843.295072,-74311.263306
24994.986176,6513.812290,12435.459826,-74924.139704
24994.988717,592.164754,6661.853478,-75690.235202
24994.991257,-4885.359217,3849.070898,-74924.139704
24994.993798,-5773.606348,12435.459826,-75077.358804
24994.996339,42783.903448,-592.164754,-77375.645298
24994.998880,-39230.914926,-888.247130,-75077.358804
24995.001420,9030.512492,-1628.453072,-78907.836294
24995.003961,29756.278868,-1480.411884,-81512.560987
24995.006502,-16432.571912,-7402.059420,-76149.892501
24995.009043,1628.453072,-3108.864956,-75843.454302
24995.011583,19541.436869,-2072.576638,-77682.083497
24995.014124,2812.782580,11251.130318,-73851.606007
24995.016665,1776.494261,11103.089130,-75230.577904
24995.019206,6069.688724,9178.553681,-76456.330700
24995.021746,7698.141797,3701.029710,-74770.920605
24995.024287,6957.935855,1184.329507,-73391.948708
24995.026828,-3552.988522,-1184.329507,-75383.797003
24995.029369,8734.430116,6069.688724,-76149.892501
24995.031909,5921.647536,8734.430116,-74924.139704
24995.034450,1924.535449,1480.411884,-75843.454302
24995.036991,9030.512492,-1924.535449,-75537.016103
24995.039532,-6069.688724,-296.082377,-74617.701505
24995.042072,14063.912898,2368.659014,-76303.111601
24995.044613,2368.659014,4441.235652,-75537.016103
24995.047154,20133.601622,1036.288319,-76762.768900
24995.049695,-8438.347739,592.164754,-74924.139704
24995.052235,8734.430116,2960.823768,-74311.263306
24995.054776,15988.448347,2368.659014,-76915.987999
24995.057317,-26203.290347,6957.935855,-74158.044206
24995.059858,-11547.212695,21614.013506,-76762.768900
24995.062398,23834.631332,18061.024985,-74770.920605
24995.064939,-10807.006753,15988.448347,-73698.386908
24995.067480,-4885.359217,6513.812290,-76303.111601
24995.070021,14952.160028,6365.771101,-75537.016103
24995.072561,-2072.576638,3256.906145,-74311.263306
24995.075102,-8438.347739,6365.771101,-77375.645298
24995.077643,1036.288319,10066.800811,-75843.454302
24995.080190,-7846.182985,12139.377449,-73085.510509
24995.082737,11103.089130,11103.089130,-73851.606007
24995.085285,-11251.130318,9474.636058,-74158.044206
24995.087832,9030.512492,2812.782580,-74004.825107
24995.090379,-7550.100608,10955.047942,-71553.319513
24995.092926,-1480.411884,11399.171507,-75077.358804
24995.095473,-5033.400406,12583.501014,-76762.768900
24995.098020,3552.988522,13175.665768,-73238.729609
24995.100568,-6809.894666,13471.748144,-72166.195912
24995.103115,444.123565,14063.912898,-74770.920605
24995.105662,-1628.453072,12583.501014,-75230.577904
24995.108209,6513.812290,8734.430116,-76609.549800
24995.110756,-2664.741391,1776.494261,-75996.673402
24995.113304,-24870.919651,6957.935855,-75077.358804
24995.115851,25463.084405,7254.018232,-75537.016103
24995.118398,-19541.436869,0.000000,-72166.195912
24995.120945,-6513.812290,4737.318029,-73085.510509
24995.123492,31384.731941,1036.288319,-77682.083497
24995.126039,-18801.230927,-3108.864956,-75843.454302
24995.128587,-12139.377449,-2220.617826,-74617.701505
24995.131134,18061.024985,-3849.070898,-78907.836294
24995.133681,-4293.194464,7698.141797,-74311.263306
24995.136228,6069.688724,6365.771101,-75537.016103
24995.138775,8586.388927,10510.924376,-76609.549800
24995.141323,6957.935855,5773.606348,-75077.358804
24995.143870,6513.812290,444.123565,-74617.701505
24995.146417,2368.659014,740.205942,-75230.577904
24995.148964,3997.112087,3108.864956,-75690.235202
24995.151511,8290.306550,7550.100608,-76303.111601
24995.154058,8882.471304,1924.535449,-75383.797003
24995.156606,3552.988522,-148.041188,-74004.825107
24995.159153,-3404.947333,-148.041188,-76303.111601
24995.161700,14063.912898,1776.494261,-76609.549800
24995.164247,3997.112087,5477.523971,-75690.235202
24995.166794,15692.365970,-148.041188,-76456.330700
24995.169342,-5329.482782,0.000000,-75383.797003
24995.171889,8290.306550,4293.194464,-73698.386908
24995.174436,14063.912898,3256.906145,-75383.797003
24995.176983,-19985.560434,6809.894666,-74924.139704
24995.179530,2664.741391,21465.972318,-75383.797003
24995.182083,17172.777854,19689.478057,-73698.386908
24995.184637,-11695.253884,13323.706956,-72779.072310
24995.187190,-1924.535449,6513.812290,-76149.892501
24995.189743,12879.583391,4737.318029,-75230.577904
24995.192296,-7550.100608,3552.988522,-74311.263306
24995.194849,-10066.800811,6513.812290,-76609.549800
24995.197402,3256.906145,10214.842000,-76915.987999
24995.199955,-7254.018232,14063.912898,-73698.386908
24995.202508,11991.336260,10510.924376,-74617.701505
24995.205062,-10214.842000,5033.400406,-75996.673402
24995.207615,7105.977043,4441.235652,-73851.606007
24995.210168,-3256.906145,9178.553681,-75383.797003
24995.212721,-3997.112087,12287.418637,-75537.016103
24995.215274,1184.329507,11695.253884,-75843.454302
24995.217827,-1924.535449,12435.459826,-72932.291410
24995.220380,-8882.471304,12583.501014,-73085.510509
24995.222933,4737.318029,13619.789333,-74004.825107
24995.225487,444.123565,10807.006753,-74924.139704
24995.228040,2664.741391,8290.306550,-74924.139704
24995.230593,-16136.489536,6661.853478,-74770.920605
24995.233146,2960.823768,11695.253884,-75383.797003
24995.235699,33309.267390,1924.535449,-76149.892501
24995.238252,-32272.979071,8882.471304,-71400.100414
24995.240805,44560.397708,5625.565159,-76303.111601
24995.243358,21910.095883,2960.823768,-77835.302597
24995.245912,-11547.212695,1184.329507,-75843.454302
24995.248465,8734.430116,-444.123565,-76303.111601
24995.251018,-7698.141797,4441.235652,-74311.263306
24995.253571,7550.100608,6809.894666,-75077.358804
24995.256124,-1776.494261,9178.553681,-75843.454302
24995.258677,17764.942608,4589.276840,-75843.454302
24995.261230,1628.453072,1628.453072,-75383.797003
24995.263783,-1628.453072,740.205942,-75383.797003
24995.266337,10807.006753,3256.906145,-75996.673402
24995.268890,2220.617826,7105.977043,-76915.987999
24995.271443,12435.459826,4441.235652,-75996.673402
24995.273996,3701.029710,-2812.782580,-75383.797003
24995.276549,-3256.906145,444.123565,-73698.386908
24995.279102,6513.812290,-1184.329507,-77222.426198
24995.281655,7846.182985,4441.235652,-75996.673402
24995.284174,17320.819043,740.205942,-75843.454302
24995.286693,-6661.853478,2220.617826,-74158.044206
24995.289211,7402.059420,1628.453072,-75996.673402
24995.291730,16728.654289,2072.576638,-75843.454302
24995.294249,-31088.649564,7994.224174,-73085.510509
24995.296767,-5773.606348,25167.002028,-75230.577904
24995.299286,20577.725188,18653.189738,-74924.139704
24995.301805,-13471.748144,15840.407159,-73545.167808
24995.304324,1924.535449,4885.359217,-77069.207099
24995.306842,10362.883188,4737.318029,-76303.111601
24995.309361,-3849.070898,2368.659014,-74617.701505
24995.311880,-7550.100608,7254.018232,-77069.207099
24995.314398,-1480.411884,11103.089130,-75996.673402
24995.316917,-6513.812290,16432.571912,-73238.729609
24995.319436,5773.606348,11251.130318,-74770.920605
24995.321954,-888.247130,3404.947333,-76149.892501
24995.324473,-3701.029710,3701.029710,-74004.825107
24995.326992,1776.494261,10214.842000,-73085.510509
24995.329511,-5921.647536,12287.418637,-76762.768900
24995.332029,-1184.329507,14211.954086,-75690.235202
24995.334548,-1924.535449,14359.995275,-73545.167808
24995.337067,-5773.606348,13471.748144,-73851.606007
24995.339585,296.082377,13471.748144,-74311.263306
24995.342104,9178.553681,9918.759623,-75077.358804
24995.344623,-5033.400406,4885.359217,-75996.673402
24995.347142,-13175.665768,7698.141797,-74311.263306
24995.349660,-2812.782580,11843.295072,-76149.892501
24995.352179,42635.862259,4293.194464,-76303.111601
24995.354698,-19541.436869,10066.800811,-70480.785816
24995.357216,40119.162056,6217.729913,-73698.386908
24995.359735,2220.617826,592.164754,-75077.358804
24995.362254,-19985.560434,-148.041188,-73085.510509
24995.364772,14063.912898,-444.123565,-74311.263306
24995.367291,-10362.883188,5477.523971,-74311.263306
24995.369810,5329.482782,7254.018232,-73698.386908
24995.372329,-296.082377,7550.100608,-75843.454302
24995.374847,16580.613101,1776.494261,-76303.111601
24995.377366,-3701.029710,5033.400406,-73391.948708
24995.379885,6069.688724,-740.205942,-77069.207099
24995.382403,7402.059420,4737.318029,-77222.426198
24995.384934,3997.112087,6661.853478,-76609.549800
24995.387464,15248.242405,3108.864956,-75996.673402
24995.389994,-3997.112087,-2516.700203,-74004.825107
24995.392524,6069.688724,-148.041188,-74158.044206
24995.395054,1184.329507,1332.370696,-77069.207099
24995.397584,17320.819043,2812.782580,-76149.892501
24995.400115,444.123565,1924.535449,-75077.358804
24995.402645,-1184.329507,1184.329507,-75230.577904
24995.405175,10362.883188,5181.441594,-75690.235202
24995.407705,17764.942608,148.041188,-75537.016103
24995.410235,-49889.880491,15100.201217,-71553.319513
24995.412765,25167.002028,17024.736666,-77069.207099
24995.415296,-5181.441594,19393.395680,-75537.016103
24995.417826,-16728.654289,10807.006753,-73085.510509
24995.420356,2368.659014,5033.400406,-76609.549800
24995.422886,4885.359217,4589.276840,-73085.510509
24995.425416,-9770.718434,7846.182985,-73391.948708
24995.427947,-6069.688724,7550.100608,-78448.178995
24995.430477,2368.659014,11695.253884,-75996.673402
24995.433007,-8290.306550,14063.912898,-73085.510509
24995.435537,14063.912898,5181.441594,-76915.987999
24995.438067,-6809.894666,5773.606348,-74617.701505
24995.440597,-888.247130,7698.141797,-74158.044206
24995.443128,3404.947333,11399.171507,-75230.577904
24995.445658,-11991.336260,12583.501014,-76915.987999
24995.448188,444.123565,13619.789333,-75383.797003
24995.450718,-4441.235652,13915.871710,-73085.510509
24995.453248,-2220.617826,12139.377449,-73851.606007
24995.455778,5181.441594,12139.377449,-74617.701505
24995.458309,5033.400406,3849.070898,-75537.016103
24995.460839,-24870.919651,6661.853478,-74311.263306
24995.463369,888.247130,11251.130318,-75690.235202
24995.465908,37454.420665,2368.659014,-77682.083497
24995.468448,-39378.956114,-4737.318029,-74464.482406
24995.470987,21169.889941,-888.247130,-76456.330700
24995.473527,36418.132346,-2812.782580,-78754.617194
24995.476066,-16284.530724,444.123565,-75843.454302
24995.478606,15248.242405,2516.700203,-76609.549800
24995.481145,-2220.617826,5329.482782,-75383.797003
24995.483684,3256.906145,9918.759623,-73851.606007
24995.486224,3997.112087,8586.388927,-75690.235202
24995.488763,5477.523971,5329.482782,-74158.044206
24995.491303,-1480.411884,4293.194464,-73545.167808
24995.493842,14508.036463,-1628.453072,-75537.016103
24995.496382,-13915.871710,5329.482782,-75537.016103
24995.498921,10807.006753,6069.688724,-77375.645298
24995.501460,13619.789333,3256.906145,-76762.768900
24995.504000,-6217.729913,-1776.494261,-74464.482406
24995.506539,9326.594869,-1036.288319,-75230.577904
24995.509079,3404.947333,888.247130,-76303.111601
24995.511618,17172.777854,2220.617826,-76609.549800
24995.514158,-592.164754,-592.164754,-76609.549800
24995.516697,2072.576638,1184.329507,-75996.673402
24995.519236,14063.912898,2812.782580,-76149.892501
24995.521776,9030.512492,2516.700203,-74924.139704
24995.524315,-50185.962868,17468.860231,-71553.319513
24995.526855,34641.638086,15396.283594,-77375.645298
24995.529394,-1036.288319,21317.931130,-75230.577904
24995.531934,-15100.201217,12583.501014,-72166.195912
24995.534473,296.082377,4145.153275,-76303.111601
24995.537012,5181.441594,2812.782580,-74770.920605
24995.539552,-5921.647536,9178.553681,-73085.510509
24995.542091,-3256.906145,9178.553681,-78141.740796
24995.544631,4885.359217,14211.954086,-74924.139704
24995.547170,-9474.636058,15544.324782,-72319.415011
24995.549710,15988.448347,5773.606348,-76609.549800
24995.552249,-12435.459826,5921.647536,-75383.797003
24995.554788,6069.688724,8142.265362,-73545.167808
24995.557328,-1036.288319,13767.830521,-75690.235202
24995.559867,-10214.842000,12287.418637,-75996.673402
24995.562407,-740.205942,13027.624579,-74311.263306
24995.564946,-4441.235652,14952.160028,-72932.291410
24995.567494,2220.617826,14508.036463,-74004.825107
24995.570042,3849.070898,10066.800811,-74924.139704
24995.572589,3701.029710,5033.400406,-75230.577904
24995.575137,-22650.301825,7402.059420,-75077.358804
24995.577685,5625.565159,11991.336260,-76149.892501
24995.580233,17320.819043,6809.894666,-75077.358804
24995.582780,-17912.983796,8734.430116,-71093.662214
24995.585328,43524.109390,5181.441594,-74158.044206
24995.587876,-10066.800811,-2072.576638,-74004.825107
24995.590424,-10214.842000,-2812.782580,-74311.263306
24995.592971,9622.677246,-2664.741391,-76762.768900
24995.595519,-11251.130318,7254.018232,-74617.701505
24995.598067,4885.359217,8882.471304,-74464.482406
24995.600615,14508.036463,8290.306550,-75996.673402
24995.603163,-444.123565,3552.988522,-75077.358804
24995.605710,12287.418637,-296.082377,-75230.577904
24995.608258,2220.617826,-2220.617826,-76456.330700
24995.610806,2812.782580,8438.347739,-75537.016103
24995.613354,9474.636058,4145.153275,-77682.083497
24995.615901,7846.182985,3256.906145,-75690.235202
24995.618449,-1924.535449,-444.123565,-73085.510509
24995.620997,4589.276840,-1332.370696,-75690.235202
24995.623545,14359.995275,1332.370696,-75843.454302
24995.626092,7550.100608,444.123565,-76456.330700
24995.628640,2516.700203,888.247130,-75843.454302
24995.631188,3108.864956,3997.112087,-76456.330700
24995.633736,25167.002028,148.041188,-77069.207099
24995.636283,-48113.386230,12287.418637,-70940.443115
24995.638831,18357.107362,22798.343014,-74617.701505
24995.641379,14359.995275,22206.178260,-72932.291410
24995.643927,-14804.118840,14211.954086,-72779.072310
24995.646475,-1924.535449,5773.606348,-75843.454302
24995.649022,15692.365970,1776.494261,-76303.111601
24995.651570,-13323.706956,5477.523971,-72932.291410
24995.654118,-5477.523971,7105.977043,-77375.645298
24995.656666,4885.359217,12879.583391,-75996.673402
24995.659213,-4885.359217,17320.819043,-73391.948708
24995.661761,-740.205942,12287.418637,-73238.729609
24995.664309,5921.647536,-296.082377,-79061.055394
24995.666857,-9918.759623,8734.430116,-73698.386908
24995.669410,5181.441594,10362.883188,-74924.139704
24995.671964,-5773.606348,14211.954086,-77835.302597
24995.674518,-7402.059420,11695.253884,-76149.892501
24995.677072,888.247130,15248.242405,-73851.606007
24995.679626,-2516.700203,11991.336260,-74617.701505
24995.682180,7105.977043,10214.842000,-74770.920605
24995.684733,-1628.453072,5921.647536,-75230.577904
24995.687287,-17172.777854,7994.224174,-74311.263306
24995.689841,296.082377,13175.665768,-75230.577904
24995.692395,37158.338288,2072.576638,-77988.521696
24995.694949,-16432.571912,9326.594869,-71246.881314
24995.697502,42043.697506,4293.194464,-72625.853210
24995.700056,-11399.171507,-2220.617826,-74004.825107
24995.702610,-13027.624579,-5625.565159,-74770.920605
24995.705164,11695.253884,-2812.782580,-77375.645298
24995.707718,-16580.613101,6069.688724,-74158.044206
24995.710271,5625.565159,9918.759623,-74004.825107
24995.712825,13767.830521,9474.636058,-75996.673402
24995.715379,8290.306550,444.123565,-74924.139704
24995.717933,-444.123565,2220.617826,-73085.510509
24995.720487,12139.377449,-1332.370696,-76456.330700
24995.723041,444.123565,9770.718434,-76303.111601
24995.725594,8586.388927,2368.659014,-77988.521696
24995.728148,5329.482782,4885.359217,-75690.235202
24995.730702,2516.700203,-2812.782580,-74004.825107
24995.733256,4293.194464,-740.205942,-74617.701505
24995.735810,13915.871710,-148.041188,-76762.768900
24995.738363,5625.565159,444.123565,-75230.577904
24995.740917,-5033.400406,3849.070898,-75230.577904
24995.743471,12583.501014,5181.441594,-76915.987999
24995.746025,16580.613101,1332.370696,-77682.083497
24995.748579,-48705.550984,14952.160028,-70634.004916
24995.751132,21762.054695,21317.931130,-74617.701505
24995.753686,12287.418637,21614.013506,-73851.606007
24995.756240,-16136.489536,13767.830521,-71706.538613
24995.758794,3404.947333,4441.235652,-76456.330700
24995.761348,3701.029710,1332.370696,-75843.454302
24995.763902,-9918.759623,7846.182985,-73391.948708
24995.766455,-1184.329507,6957.935855,-78141.740796
24995.769009,-3701.029710,13323.706956,-77222.426198
24995.771574,2368.659014,13027.624579,-73851.606007
24995.774134,-3256.906145,9030.512492,-75077.358804
24995.776693,-2072.576638,3108.864956,-75383.797003
24995.779252,1480.411884,11103.089130,-72932.291410
24995.781811,-4441.235652,13471.748144,-75537.016103
24995.784370,-3552.988522,13471.748144,-76915.987999
24995.786930,-10510.924376,13767.830521,-74617.701505
24995.789489,4589.276840,13915.871710,-72932.291410
24995.792048,-2220.617826,13767.830521,-73391.948708
24995.794607,7550.100608,7550.100608,-75230.577904
24995.797166,-14656.077652,7254.018232,-75690.235202
24995.799725,-12435.459826,12879.583391,-75230.577904
24995.802285,37158.338288,2220.617826,-76915.987999
24995.804844,-37158.338288,-6069.688724,-75843.454302
24995.807403,12731.542202,-5329.482782,-78754.617194
24995.809962,31236.690752,-1480.411884,-78294.959896
24995.812521,-19985.560434,-2368.659014,-74770.920605
24995.815081,5181.441594,1184.329507,-75690.235202
24995.817640,27091.537477,3552.988522,-75383.797003
24995.820199,-8142.265362,12731.542202,-74464.482406
24995.822758,18061.024985,7994.224174,-76609.549800
24995.825317,3997.112087,6513.812290,-75690.235202
24995.827876,-1628.453072,296.082377,-74464.482406
24995.830436,3552.988522,1480.411884,-75077.358804
24995.832995,2812.782580,1184.329507,-74770.920605
24995.835554,4293.194464,7550.100608,-76149.892501
24995.838113,3256.906145,4589.276840,-75996.673402
24995.840672,12435.459826,-2072.576638,-75230.577904
24995.843231,-6513.812290,-296.082377,-75077.358804
24995.845791,21169.889941,-3552.988522,-77222.426198
24995.848350,8882.471304,-2960.823768,-76609.549800
24995.850909,1628.453072,-888.247130,-75690.235202
24995.853468,-6069.688724,7846.182985,-75383.797003
24995.856027,31828.855506,296.082377,-78448.178995
24995.858587,-30940.608376,9622.677246,-71859.757712
24995.861146,10510.924376,23242.466579,-73851.606007
24995.863705,16876.695478,20873.807564,-73851.606007
24995.866264,-15396.283594,14211.954086,-72779.072310
24995.868823,-148.041188,5625.565159,-75843.454302
24995.871382,13027.624579,1184.329507,-76149.892501
24995.873945,-12731.542202,3256.906145,-73391.948708
24995.876508,-4293.194464,6365.771101,-75690.235202
24995.879071,-6365.771101,12435.459826,-76762.768900
24995.881634,-6957.935855,17616.901420,-73238.729609
24995.884197,13767.830521,8586.388927,-75230.577904
24995.886759,-8290.306550,3404.947333,-75537.016103
24995.889322,-5477.523971,7105.977043,-73238.729609
24995.891885,5921.647536,13323.706956,-75077.358804
24995.894448,-9030.512492,13323.706956,-75690.235202
24995.897011,-5477.523971,15840.407159,-74770.920605
24995.899574,-888.247130,13471.748144,-73851.606007
24995.902136,4441.235652,12583.501014,-74158.044206
24995.904699,2664.741391,7550.100608,-74924.139704
24995.907262,-5477.523971,5773.606348,-75383.797003
24995.909825,-22946.384202,12435.459826,-76456.330700
24995.912388,43672.150578,148.041188,-77988.521696
24995.914951,-30052.361245,-1924.535449,-73698.386908
24995.917513,11399.171507,-3701.029710,-76149.892501
24995.920076,23242.466579,2960.823768,-74617.701505
24995.922639,-2220.617826,-3997.112087,-73391.948708
24995.925202,5033.400406,5181.441594,-76149.892501
24995.927765,18209.066173,1628.453072,-75230.577904
24995.930328,-4885.359217,12731.542202,-74770.920605
24995.932890,11843.295072,6365.771101,-75537.016103
24995.935453,5329.482782,6957.935855,-76303.111601
24995.938016,6513.812290,1036.288319,-74770.920605
24995.940579,3997.112087,-148.041188,-74158.044206
24995.943142,4737.318029,2516.700203,-76915.987999
24995.945705,3849.070898,5329.482782,-77835.302597
24995.948267,9326.594869,3997.112087,-77222.426198
24995.950830,5625.565159,296.082377,-73698.386908
24995.953393,740.205942,740.205942,-74770.920605
24995.955956,16284.530724,-3701.029710,-77222.426198
24995.958519,7402.059420,-3108.864956,-75537.016103
24995.961081,3404.947333,592.164754,-74464.482406
24995.963644,-444.123565,7254.018232,-77375.645298
24995.966207,24574.837274,740.205942,-77528.864398
24995.968770,-51666.374752,15396.283594,-71400.100414
24995.971333,21614.013506,18061.024985,-75537.016103
24995.973896,8142.265362,23538.548956,-73545.167808
24995.976462,-15100.201217,12583.501014,-72932.291410
24995.979028,-1036.288319,7550.100608,-75230.577904
24995.981594,12139.377449,-1184.329507,-75843.454302
24995.984160,-11251.130318,14211.954086,-74311.263306
24995.986726,-2664.741391,9326.594869,-76456.330700
24995.989293,-1036.288319,14211.954086,-75690.235202
24995.991859,-1776.494261,16284.530724,-74464.482406
24995.994425,9770.718434,7254.018232,-74924.139704
24995.996991,-7105.977043,3997.112087,-75383.797003
24995.999557,-5773.606348,7994.224174,-74464.482406
24996.002123,10510.924376,11399.171507,-76609.549800
24996.004690,-19393.395680,14952.160028,-75537.016103
24996.007256,5181.441594,14656.077652,-74770.920605
24996.009822,-2664.741391,17320.819043,-72625.853210
24996.012388,6661.853478,10066.800811,-74158.044206
24996.014954,-1480.411884,7254.018232,-75230.577904
24996.017520,-15988.448347,7994.224174,-74158.044206
24996.020087,296.082377,15692.365970,-74617.701505
24996.022653,38934.832549,444.123565,-78754.617194
24996.025219,-42487.821071,888.247130,-73851.606007
24996.027785,46929.056723,888.247130,-77222.426198
24996.030351,3404.947333,-3701.029710,-75537.016103
24996.032917,-9326.594869,-4441.235652,-75077.358804
24996.035484,8586.388927,-2072.576638,-77375.645298
24996.038050,-17172.777854,7254.018232,-75996.673402
24996.040616,3256.906145,11843.295072,-72472.634111
24996.043182,8438.347739,6513.812290,-76762.768900
24996.045748,10807.006753,2368.659014,-75843.454302
24996.048314,1776.494261,2368.659014,-73085.510509
24996.050881,10510.924376,148.041188,-76456.330700
24996.053447,1332.370696,5033.400406,-76303.111601
24996.056013,6069.688724,4145.153275,-76915.987999
24996.058579,11991.336260,1924.535449,-75537.016103
24996.061145,-4441.235652,-740.205942,-75690.235202
24996.063711,14952.160028,-2664.741391,-76303.111601
24996.066278,10214.842000,-4737.318029,-76762.768900
24996.068844,2516.700203,-1332.370696,-74617.701505
24996.071410,-4441.235652,6809.894666,-74924.139704
24996.073976,27387.619854,1480.411884,-78601.398095
24996.076542,-34789.679274,10510.924376,-72779.072310
24996.079111,18209.066173,20577.725188,-73851.606007
24996.081680,7254.018232,22502.260637,-74004.825107
24996.084249,-12583.501014,12139.377449,-73545.167808
24996.086818,-3256.906145,4441.235652,-75690.235202
24996.089387,13767.830521,740.205942,-76762.768900
24996.091956,-16432.571912,3256.906145,-74617.701505
24996.094525,296.082377,6661.853478,-77682.083497
24996.097094,-9474.636058,14508.036463,-75843.454302
24996.099663,-5625.565159,14508.036463,-72932.291410
24996.102232,12287.418637,9770.718434,-74464.482406
24996.104800,-10510.924376,3849.070898,-74158.044206
24996.107369,5033.400406,9622.677246,-72932.291410
24996.109938,-3701.029710,13767.830521,-75383.797003
24996.112507,-3701.029710,14804.118840,-75077.358804
24996.115076,-9474.636058,14359.995275,-75230.577904
24996.117645,6957.935855,13471.748144,-72932.291410
24996.120214,-148.041188,8438.347739,-74924.139704
24996.122783,-444.123565,5181.441594,-75996.673402
24996.125352,-18505.148550,10510.924376,-75996.673402
24996.127921,18801.230927,12435.459826,-75843.454302
24996.130490,21465.972318,2220.617826,-77375.645298
24996.133059,-29904.320057,6069.688724,-72625.853210
24996.135628,49741.839302,-1184.329507,-77069.207099
24996.138197,10066.800811,-4737.318029,-75077.358804
24996.140766,-148.041188,-5033.400406,-74617.701505
24996.143334,11991.336260,-2220.617826,-79980.369991
24996.145903,-11399.171507,7698.141797,-74617.701505
24996.148472,10658.965565,10214.842000,-74617.701505
24996.151041,12435.459826,7994.224174,-75690.235202
24996.153610,8438.347739,4293.194464,-74311.263306
24996.156179,-3849.070898,1480.411884,-74004.825107
24996.158748,18801.230927,-148.041188,-75537.016103
24996.161317,1776.494261,3701.029710,-76456.330700
24996.163886,444.123565,2960.823768,-77375.645298
24996.166455,16432.571912,1036.288319,-76915.987999
24996.169024,-4737.318029,148.041188,-74158.044206
24996.171593,16432.571912,-4885.359217,-76303.111601
24996.174162,6661.853478,-4441.235652,-76456.330700
24996.176731,3997.112087,-1332.370696,-74617.701505
24996.179300,-8290.306550,6513.812290,-75996.673402
24996.181870,17172.777854,2220.617826,-77835.302597
24996.184441,-52406.580694,18801.230927,-71553.319513
24996.187012,30052.361245,15544.324782,-76303.111601
24996.189583,-1332.370696,22502.260637,-73698.386908
24996.192154,-13915.871710,11103.089130,-73238.729609
24996.194725,1480.411884,5625.565159,-75690.235202
24996.197296,8142.265362,-296.082377,-75383.797003
24996.199866,-13915.871710,5329.482782,-74311.263306
24996.202437,-5625.565159,8734.430116,-77375.645298
24996.205008,1184.329507,13915.871710,-74311.263306
24996.207579,-2072.576638,17764.942608,-73391.948708
24996.210150,7550.100608,9030.512492,-74617.701505
24996.212721,-3701.029710,5625.565159,-74924.139704
24996.215292,-5181.441594,9918.759623,-74004.825107
24996.217863,7698.141797,11991.336260,-76915.987999
24996.220433,-16728.654289,14804.118840,-76456.330700
24996.223004,-296.082377,14952.160028,-74311.263306
24996.225575,7550.100608,11251.130318,-74158.044206
24996.228146,444.123565,7550.100608,-73851.606007
24996.230717,-12583.501014,5033.400406,-74617.701505
24996.233288,-11695.253884,15692.365970,-75230.577904
24996.235859,40415.244433,2368.659014,-77069.207099
24996.238430,-33457.308578,148.041188,-72932.291410
24996.241000,4145.153275,-3108.864956,-75383.797003
24996.243571,28275.866984,-3849.070898,-79061.055394
24996.246142,-1184.329507,-1480.411884,-73698.386908
24996.248713,7550.100608,5181.441594,-75843.454302
24996.251284,18061.024985,3701.029710,-77222.426198
24996.253855,-8882.471304,10658.965565,-74464.482406
24996.256426,14804.118840,7550.100608,-75537.016103
24996.258996,1184.329507,7698.141797,-75843.454302
24996.261567,12879.583391,1036.288319,-76609.549800
24996.264138,-592.164754,1480.411884,-73698.386908
24996.266709,3404.947333,3108.864956,-74464.482406
24996.269280,4441.235652,3552.988522,-77528.864398
24996.271851,9030.512492,1628.453072,-75230.577904
24996.274422,2368.659014,1480.411884,-73698.386908
24996.276993,9474.636058,-1184.329507,-76456.330700
24996.279563,10658.965565,-4293.194464,-76609.549800
24996.282134,11547.212695,-3701.029710,-75690.235202
24996.284671,-10214.842000,2664.741391,-74617.701505
24996.287208,29460.196492,-740.205942,-78448.178995
24996.289745,-40859.367998,11547.212695,-72319.415011
24996.292282,2220.617826,25018.960840,-74158.044206
24996.294819,15840.407159,25018.960840,-72472.634111
24996.297356,-11991.336260,15100.201217,-73698.386908
24996.299893,-2516.700203,3849.070898,-77069.207099
24996.302429,18357.107362,888.247130,-76303.111601
24996.304966,-16728.654289,5477.523971,-73391.948708
24996.307503,-1628.453072,3849.070898,-78448.178995
24996.310040,-8438.347739,15988.448347,-74770.920605
24996.312577,4589.276840,17468.860231,-72932.291410
24996.315114,2664.741391,9030.512492,-74311.263306
24996.317651,-4293.194464,4589.276840,-74158.044206
24996.320188,-5181.441594,7698.141797,-73238.729609
24996.322725,7402.059420,13175.665768,-75537.016103
24996.325262,-14063.912898,16432.571912,-75690.235202
24996.327798,-1628.453072,16284.530724,-74770.920605
24996.330335,4145.153275,13471.748144,-73391.948708
24996.332872,4145.153275,8438.347739,-73698.386908
24996.335409,-10214.842000,5329.482782,-75383.797003
24996.337946,-10807.006753,14359.995275,-75077.358804
24996.340483,35233.802839,4885.359217,-77222.426198
24996.343020,-9178.553681,5033.400406,-72932.291410
24996.345557,-9178.553681,2072.576638,-79827.150892
24996.348094,25463.084405,-3108.864956,-78754.617194
24996.350631,-3997.112087,-1480.411884,-74924.139704
24996.353168,3404.947333,3108.864956,-75230.577904
24996.355704,27683.702231,1184.329507,-79061.055394
24996.358241,-11399.171507,10066.800811,-74924.139704
24996.360778,12139.377449,6809.894666,-74004.825107
24996.363315,14508.036463,6957.935855,-75383.797003
24996.365852,-4885.359217,2664.741391,-74311.263306
24996.368389,15248.242405,296.082377,-74004.825107
24996.370926,-3997.112087,3552.988522,-75077.358804
24996.373463,5625.565159,3701.029710,-76149.892501
24996.376000,11695.253884,1924.535449,-76456.330700
24996.378537,-888.247130,1184.329507,-72932.291410
24996.381073,13323.706956,-740.205942,-75690.235202
24996.383610,8142.265362,-5329.482782,-76149.892501
24996.386156,11251.130318,-3108.864956,-75077.358804
24996.388701,-10658.965565,5329.482782,-75843.454302
24996.391246,31680.814318,-740.205942,-77988.521696
24996.393792,-52850.704259,12435.459826,-72625.853210
24996.396337,17468.860231,21910.095883,-74004.825107
24996.398882,9178.553681,25759.166782,-71246.881314
24996.401428,-10658.965565,14804.118840,-73391.948708
24996.403973,-3849.070898,5625.565159,-75537.016103
24996.406518,20281.642811,148.041188,-75537.016103
24996.409064,-19097.313304,5773.606348,-73698.386908
24996.411609,1776.494261,5181.441594,-77835.302597
24996.414154,0.000000,14359.995275,-75077.358804
24996.416700,-8586.388927,18061.024985,-73238.729609
24996.419245,9770.718434,9030.512492,-75537.016103
24996.421790,-9622.677246,6069.688724,-73851.606007
24996.424336,-2812.782580,10066.800811,-73545.167808
24996.426881,-444.123565,14656.077652,-74924.139704
24996.429426,-9474.636058,14508.036463,-75383.797003
24996.431972,-5477.523971,17320.819043,-74004.825107
24996.434517,14508.036463,9326.594869,-74004.825107
24996.437062,-3404.947333,7698.141797,-73391.948708
24996.439607,-21762.054695,6809.894666,-75383.797003
24996.442153,2072.576638,15248.242405,-75996.673402
24996.444698,37602.461854,1776.494261,-77682.083497
24996.447243,-47817.303853,-2220.617826,-74004.825107
24996.449789,51962.457128,-1628.453072,-77835.302597
24996.452334,17764.942608,-5921.647536,-74464.482406
24996.454879,-3997.112087,-2220.617826,-74311.263306
24996.457425,6957.935855,4885.359217,-74464.482406
24996.459970,-4441.235652,5477.523971,-76762.768900
24996.462515,1480.411884,6513.812290,-74004.825107
24996.465061,15100.201217,4737.318029,-75843.454302
24996.467606,9770.718434,3552.988522,-75077.358804
24996.470151,1480.411884,4441.235652,-74004.825107
24996.472697,13027.624579,0.000000,-77222.426198
24996.475242,592.164754,4737.318029,-76915.987999
24996.477787,9770.718434,-1332.370696,-78141.740796
24996.480333,4589.276840,1776.494261,-73851.606007
24996.482878,7254.018232,-1776.494261,-74004.825107
24996.485423,11103.089130,-3256.906145,-76149.892501
24996.487976,9178.553681,-2368.659014,-75843.454302
24996.490528,-11547.212695,2220.617826,-75230.577904
24996.493080,28275.866984,1480.411884,-77222.426198
24996.495633,-18061.024985,7254.018232,-74924.139704
24996.498185,-26943.496289,24426.796086,-74617.701505
24996.500737,26795.455100,18505.148550,-75077.358804
24996.503290,-11251.130318,17468.860231,-72779.072310
24996.505842,-3552.988522,6217.729913,-76762.768900
24996.508394,15248.242405,888.247130,-76149.892501
24996.510947,-9918.759623,3997.112087,-72779.072310
24996.513499,-3552.988522,3701.029710,-77682.083497
24996.516051,-2664.741391,11251.130318,-77222.426198
24996.518604,-4441.235652,15840.407159,-73391.948708
24996.521156,2220.617826,14656.077652,-74464.482406
24996.523708,-1776.494261,3552.988522,-75843.454302
24996.526261,-9030.512492,10510.924376,-72472.634111
24996.528813,4589.276840,13027.624579,-75690.235202
24996.531365,-9030.512492,17764.942608,-75230.577904
24996.533917,-7105.977043,14804.118840,-75383.797003
24996.536470,9474.636058,11843.295072,-73698.386908
24996.539022,4441.235652,6957.935855,-73851.606007
24996.541574,-20281.642811,9030.512492,-73085.510509
24996.544127,2960.823768,16284.530724,-75996.673402
24996.546679,36270.091158,2072.576638,-77375.645298
24996.549231,-46929.056723,-1924.535449,-74770.920605
24996.551784,37158.338288,-9030.512492,-79827.150892
24996.554336,26351.331535,-8438.347739,-78754.617194
24996.556888,-296.082377,-3256.906145,-72625.853210
24996.559441,5033.400406,6661.853478,-74924.139704
24996.561993,8586.388927,5477.523971,-76609.549800
24996.564545,-1776.494261,9030.512492,-73851.606007
24996.567098,7105.977043,7550.100608,-73698.386908
24996.569650,12583.501014,4293.194464,-74311.263306
24996.572202,1776.494261,592.164754,-75690.235202
24996.574755,4589.276840,1924.535449,-74004.825107
24996.577307,5477.523971,4293.194464,-74924.139704
24996.579859,7846.182985,1332.370696,-77528.864398
24996.582412,5181.441594,1480.411884,-75077.358804
24996.584964,6513.812290,-2812.782580,-74924.139704
24996.587516,11991.336260,-3997.112087,-76456.330700
24996.590073,11399.171507,-4737.318029,-76456.330700
24996.592630,-11103.089130,3997.112087,-74311.263306
24996.595187,25315.043216,740.205942,-77528.864398
24996.597745,-21614.013506,9622.677246,-74311.263306
24996.600302,-20281.642811,23834.631332,-74617.701505
24996.602859,21910.095883,21465.972318,-74464.482406
24996.605416,-8882.471304,16728.654289,-73085.510509
24996.607973,-5921.647536,6661.853478,-75996.673402
24996.610530,18801.230927,888.247130,-76303.111601
24996.613087,-16284.530724,3552.988522,-73238.729609
24996.615644,4145.153275,6661.853478,-77375.645298
24996.618201,-3997.112087,11251.130318,-76915.987999
24996.620758,-6661.853478,15100.201217,-73391.948708
24996.623315,9622.677246,14508.036463,-73391.948708
24996.625872,-14063.912898,7254.018232,-73851.606007
24996.628429,-1036.288319,10658.965565,-72472.634111
24996.630986,-1628.453072,17024.736666,-74770.920605
24996.633543,-3404.947333,16728.654289,-75843.454302
24996.636100,-12731.542202,16728.654289,-74617.701505
24996.638658,19985.560434,9326.594869,-74770.920605
24996.641215,-6365.771101,4589.276840,-73698.386908
24996.643772,-15544.324782,8882.471304,-73085.510509
24996.646329,-1628.453072,13619.789333,-75843.454302
24996.648886,19837.519246,6365.771101,-77528.864398
24996.651443,-29756.278868,5921.647536,-71706.538613
24996.654000,44708.438897,-5329.482782,-78141.740796
24996.656557,6957.935855,-9622.677246,-76762.768900
24996.659114,3701.029710,-6069.688724,-74924.139704
24996.661671,4441.235652,5329.482782,-77222.426198
24996.664228,-5921.647536,7846.182985,-77375.645298
24996.666785,2960.823768,8882.471304,-75537.016103
24996.669342,10510.924376,1776.494261,-75843.454302
24996.671899,-1036.288319,4589.276840,-74311.263306
24996.674456,10362.883188,2960.823768,-74924.139704
24996.677013,7846.182985,5773.606348,-74770.920605
24996.679571,148.041188,2960.823768,-75690.235202
24996.682128,12583.501014,-296.082377,-76762.768900
24996.684685,4737.318029,-1036.288319,-75230.577904
24996.687242,4737.318029,-2516.700203,-75230.577904
24996.689799,15988.448347,-4737.318029,-77375.645298
24996.692360,5181.441594,-888.247130,-75843.454302
24996.694922,-9918.759623,4441.235652,-74924.139704
24996.697483,28719.990550,-148.041188,-77069.207099
24996.700044,-50778.127621,14952.160028,-72625.853210
24996.702606,18949.272115,22650.301825,-75383.797003
24996.705167,3108.864956,26943.496289,-70940.443115
24996.707729,-2812.782580,14508.036463,-72932.291410
24996.710290,-3701.029710,3404.947333,-76303.111601
24996.712852,8882.471304,-1184.329507,-74924.139704
24996.715413,-17616.901420,8142.265362,-73545.167808
24996.717974,2368.659014,7254.018232,-78294.959896
24996.720536,-3701.029710,17468.860231,-74924.139704
24996.723097,1628.453072,14211.954086,-73851.606007
24996.725659,3256.906145,7994.224174,-75690.235202
24996.728220,-7402.059420,2812.782580,-75996.673402
24996.730782,4441.235652,15248.242405,-72932.291410
24996.733343,-3849.070898,16728.654289,-75843.454302
24996.735904,-5773.606348,17172.777854,-75690.235202
24996.738466,-3552.988522,12435.459826,-75537.016103
24996.741027,11695.253884,6069.688724,-73085.510509
24996.743589,-16728.654289,5625.565159,-74158.044206
24996.746150,-8142.265362,15396.283594,-75077.358804
24996.748711,39378.956114,5625.565159,-77682.083497
24996.751273,-50926.168810,-3108.864956,-75077.358804
24996.753834,21762.054695,-8882.471304,-79214.274493
24996.756396,24722.878463,-7550.100608,-79673.931792
24996.758957,-2664.741391,-2960.823768,-74617.701505
24996.761519,6661.853478,7402.059420,-74464.482406
24996.764080,24130.713709,6957.935855,-77528.864398
24996.766641,-6957.935855,9622.677246,-75230.577904
24996.769203,7550.100608,4589.276840,-75230.577904
24996.771764,6365.771101,3701.029710,-74770.920605
24996.774326,5477.523971,3404.947333,-75537.016103
24996.776887,10066.800811,3552.988522,-74464.482406
24996.779449,-1776.494261,2368.659014,-76303.111601
24996.782010,12139.377449,-296.082377,-76609.549800
24996.784571,740.205942,-1628.453072,-75843.454302
24996.787133,10807.006753,-1628.453072,-74770.920605
24996.789694,6513.812290,-2516.700203,-76456.330700
24996.792256,8438.347739,296.082377,-76303.111601
24996.794816,-2960.823768,2516.700203,-75383.797003
24996.797381,16728.654289,148.041188,-75996.673402
24996.799945,-36122.049970,9770.718434,-72779.072310
24996.802510,5329.482782,22650.301825,-75383.797003
24996.805075,6513.812290,26203.290347,-73085.510509
24996.807640,-5033.400406,18061.024985,-73698.386908
24996.810204,-2664.741391,4293.194464,-77069.207099
24996.812769,9770.718434,-888.247130,-74004.825107
24996.815334,-17320.819043,5921.647536,-72932.291410
24996.817899,1924.535449,4145.153275,-79980.369991
24996.820463,-2960.823768,13027.624579,-76456.330700
24996.823028,-14952.160028,19541.436869,-72932.291410
24996.825593,17172.777854,9030.512492,-75383.797003
24996.828158,-12139.377449,4885.359217,-75230.577904
24996.830722,-9622.677246,11695.253884,-72319.415011
24996.833287,6661.853478,17320.819043,-76303.111601
24996.835852,-8586.388927,18061.024985,-75690.235202
24996.838417,-2368.659014,13027.624579,-74924.139704
24996.840981,8586.388927,7254.018232,-73698.386908
24996.843546,-16136.489536,6217.729913,-73085.510509
24996.846111,-9030.512492,16136.489536,-75383.797003
24996.848676,44116.274143,6365.771101,-77988.521696
24996.851240,-22206.178260,1036.288319,-74464.482406
24996.853805,-2812.782580,-2664.741391,-75077.358804
24996.856370,32421.020260,-7550.100608,-79520.712692
24996.858935,-4885.359217,-5033.400406,-74770.920605
24996.861499,12583.501014,9326.594869,-76303.111601
24996.864064,20281.642811,8142.265362,-76915.987999
24996.866629,-1480.411884,10658.965565,-75690.235202
24996.869194,8734.430116,1036.288319,-75537.016103
24996.871758,-1480.411884,4589.276840,-75996.673402
24996.874323,7254.018232,3404.947333,-75843.454302
24996.876888,9770.718434,6661.853478,-74311.263306
24996.879453,2516.700203,2812.782580,-75383.797003
24996.882017,3997.112087,-1036.288319,-75690.235202
24996.884582,9474.636058,-3108.864956,-75537.016103
24996.887147,3404.947333,-5625.565159,-76303.111601
24996.889712,15988.448347,-2812.782580,-76609.549800
24996.892276,1776.494261,888.247130,-75843.454302
24996.894841,888.247130,3404.947333,-75996.673402
24996.897409,17468.860231,-1036.288319,-76149.892501
24996.899976,-52258.539505,15692.365970,-72932.291410
24996.902544,30200.402434,16728.654289,-77069.207099
24996.905111,-1924.535449,26943.496289,-73698.386908
24996.907679,-11103.089130,11991.336260,-72779.072310
24996.910247,3404.947333,1184.329507,-77069.207099
24996.912814,148.041188,-2220.617826,-73545.167808
24996.915382,-11843.295072,8142.265362,-72472.634111
24996.917949,1480.411884,6217.729913,-80133.589091
24996.920517,-6661.853478,17024.736666,-76303.111601
24996.923084,-6809.894666,18653.189738,-73238.729609
24996.925652,13471.748144,3404.947333,-76456.330700
24996.928220,-19245.354492,7994.224174,-73851.606007
24996.930787,4885.359217,15396.283594,-74158.044206
24996.933355,-1332.370696,19985.560434,-75996.673402
24996.935922,-9918.759623,17172.777854,-75843.454302
24996.938490,2960.823768,10658.965565,-74158.044206
24996.941057,-2220.617826,5329.482782,-73545.167808
24996.943625,-19097.313304,8438.347739,-72779.072310
24996.946192,4441.235652,15544.324782,-75383.797003
24996.948760,19985.560434,8290.306550,-75843.454302
24996.951328,-26499.372724,7254.018232,-73698.386908
24996.953895,47965.345042,-2960.823768,-77988.521696
24996.956463,-4145.153275,-11251.130318,-76456.330700
24996.959030,-1036.288319,-5477.523971,-75996.673402
24996.961598,5477.523971,5773.606348,-76609.549800
24996.964165,-4885.359217,11399.171507,-75690.235202
24996.966733,3108.864956,4737.318029,-75077.358804
24996.969300,7402.059420,1332.370696,-75843.454302
24996.971868,7254.018232,2664.741391,-75690.235202
24996.974436,5921.647536,4441.235652,-75537.016103
24996.977003,11547.212695,6957.935855,-75996.673402
24996.979571,6513.812290,444.123565,-75230.577904
24996.982138,2812.782580,-2664.741391,-76149.892501
24996.984706,10510.924376,-5625.565159,-75537.016103
24996.987273,6069.688724,-5181.441594,-75996.673402
24996.989841,10214.842000,0.000000,-76303.111601
24996.992409,1036.288319,4441.235652,-76609.549800
24996.994976,18209.066173,-296.082377,-76456.330700
24996.997544,-29460.196492,7994.224174,-72319.415011
24997.000113,-8586.388927,23094.425390,-76149.892501
24997.002682,18505.148550,25759.166782,-73698.386908
24997.005251,-14211.954086,21169.889941,-72472.634111
24997.007820,-296.082377,7105.977043,-75843.454302
24997.010389,20577.725188,-1036.288319,-75843.454302
24997.012958,-20725.766376,2664.741391,-71246.881314
24997.015527,-1776.494261,5625.565159,-78141.740796
24997.018096,6513.812290,10066.800811,-78448.178995
24997.020665,-20281.642811,20873.807564,-72779.072310
24997.023234,17172.777854,8734.430116,-75690.235202
24997.025803,-10362.883188,5773.606348,-75077.358804
24997.028372,-13471.748144,9770.718434,-71859.757712
24997.030941,3849.070898,17616.901420,-74311.263306
24997.033510,-11695.253884,20429.683999,-75230.577904
24997.036079,6809.894666,14359.995275,-75230.577904
24997.038648,-1776.494261,6809.894666,-74158.044206
24997.041217,-13175.665768,7846.182985,-72779.072310
24997.043786,-3552.988522,14063.912898,-75383.797003
24997.046355,44412.356520,3849.070898,-77835.302597
24997.048924,-46336.891969,-148.041188,-75690.235202
24997.051493,30348.443622,-7550.100608,-79367.493593
24997.054061,14063.912898,-8586.388927,-75996.673402
24997.056630,-1332.370696,-6957.935855,-74924.139704
24997.059199,2812.782580,7105.977043,-75537.016103
24997.061768,5773.606348,12139.377449,-75843.454302
24997.064337,-2812.782580,7254.018232,-75077.358804
24997.066906,10066.800811,1924.535449,-75996.673402
24997.069475,-6809.894666,2812.782580,-74311.263306
24997.072044,13027.624579,3997.112087,-76456.330700
24997.074613,18505.148550,6217.729913,-75843.454302
24997.077182,-1184.329507,888.247130,-75230.577904
24997.079751,11843.295072,-3108.864956,-76149.892501
24997.082320,6069.688724,-5773.606348,-75230.577904
24997.084889,8290.306550,-6809.894666,-76303.111601
24997.087458,7846.182985,-2220.617826,-76762.768900
24997.090027,4293.194464,3404.947333,-77069.207099
24997.092596,13323.706956,2664.741391,-77375.645298
24997.095165,-35381.844028,9326.594869,-71246.881314
24997.097734,-1628.453072,22650.301825,-75230.577904
24997.100303,14211.954086,25611.125593,-73085.510509
24997.102874,-9622.677246,19837.519246,-72625.853210
24997.105444,-5033.400406,8290.306550,-75690.235202
24997.108015,22502.260637,-2368.659014,-77222.426198
24997.110585,-15396.283594,-2368.659014,-73851.606007
24997.113155,2072.576638,5921.647536,-76762.768900
24997.115726,-2664.741391,16136.489536,-74924.139704
24997.118296,-7698.141797,18061.024985,-73545.167808
24997.120867,2664.741391,9474.636058,-74004.825107
24997.123437,-1036.288319,5477.523971,-74158.044206
24997.126007,-13471.748144,11251.130318,-73238.729609
24997.128578,5181.441594,16728.654289,-74617.701505
24997.131148,-9178.553681,20725.766376,-75230.577904
24997.133719,4737.318029,15248.242405,-74924.139704
24997.136289,-2072.576638,6069.688724,-73851.606007
24997.138859,-18653.189738,8734.430116,-73391.948708
24997.141430,11547.212695,12435.459826,-75996.673402
24997.144000,28275.866984,6661.853478,-76915.987999
24997.146570,-35381.844028,5625.565159,-73391.948708
24997.149141,42043.697506,-2664.741391,-77222.426198
24997.151711,21762.054695,-6069.688724,-75383.797003
24997.154282,-6217.729913,-2960.823768,-74004.825107
24997.156852,11547.212695,6365.771101,-76609.549800
24997.159422,-3108.864956,10955.047942,-75230.577904
24997.161993,296.082377,4293.194464,-75843.454302
24997.164563,9770.718434,2368.659014,-75843.454302
24997.167134,2072.576638,1776.494261,-74924.139704
24997.169704,2516.700203,5477.523971,-75690.235202
24997.172274,15248.242405,7105.977043,-75537.016103
24997.174845,5773.606348,2220.617826,-76303.111601
24997.177415,6513.812290,-4293.194464,-75690.235202
24997.179986,6217.729913,-7698.141797,-75690.235202
24997.182556,12139.377449,-6217.729913,-75537.016103
24997.185126,1036.288319,1184.329507,-76609.549800
24997.187697,7994.224174,4589.276840,-76915.987999
24997.190267,14508.036463,1184.329507,-76915.987999
24997.192838,-43228.027013,11547.212695,-70787.224015
24997.195408,11547.212695,20281.642811,-75230.577904
24997.197978,9326.594869,23982.672521,-75077.358804
24997.200549,-11991.336260,15692.365970,-72779.072310
24997.203119,3849.070898,5181.441594,-77222.426198
24997.205691,9474.636058,-1776.494261,-74924.139704
24997.208263,-20281.642811,5477.523971,-72932.291410
24997.210834,2072.576638,5477.523971,-78294.959896
24997.213406,-3256.906145,14952.160028,-75537.016103
24997.215978,-5329.482782,16728.654289,-73698.386908
24997.218550,2812.782580,10362.883188,-74311.263306
24997.221121,-3997.112087,6365.771101,-74004.825107
24997.223693,-10658.965565,15692.365970,-72779.072310
24997.226265,9178.553681,16136.489536,-75996.673402
24997.228837,-11251.130318,19393.395680,-75077.358804
24997.231408,4145.153275,11547.212695,-74924.139704
24997.233980,-7550.100608,6513.812290,-73545.167808
24997.236552,-13175.665768,11843.295072,-74158.044206
24997.239124,31236.690752,6217.729913,-75843.454302
24997.241695,-29016.072926,888.247130,-75383.797003
24997.244267,7105.977043,-4145.153275,-76609.549800
24997.246839,24278.754898,-6809.894666,-78448.178995
24997.249411,-7698.141797,-8438.347739,-76609.549800
24997.251982,-8290.306550,296.082377,-74464.482406
24997.254554,26499.372724,7402.059420,-77835.302597
24997.257126,-6217.729913,13027.624579,-73545.167808
24997.259698,11103.089130,1332.370696,-75230.577904
24997.262269,296.082377,5033.400406,-74617.701505
24997.264841,9474.636058,4885.359217,-75230.577904
24997.267413,9326.594869,5773.606348,-76149.892501
24997.269985,5477.523971,3552.988522,-76456.330700
24997.272556,5477.523971,-888.247130,-76609.549800
24997.275128,8734.430116,-4589.276840,-74924.139704
24997.277700,9030.512492,-9622.677246,-74770.920605
24997.280272,7105.977043,-3108.864956,-76609.549800
24997.282843,4145.153275,3108.864956,-77222.426198
24997.285415,20429.683999,1776.494261,-77375.645298
24997.287988,-25315.043216,7550.100608,-72472.634111
24997.290561,-17172.777854,22798.343014,-75383.797003
24997.293133,20873.807564,19393.395680,-75537.016103
24997.295706,-13027.624579,19985.560434,-72166.195912
24997.298279,-2812.782580,5921.647536,-76303.111601
24997.300851,24130.713709,-1628.453072,-76762.768900
24997.303424,-18653.189738,-296.082377,-74464.482406
24997.305997,-1184.329507,4145.153275,-77988.521696
24997.308569,-1184.329507,12731.542202,-76456.330700
24997.311142,-9622.677246,19393.395680,-72472.634111
24997.313715,10658.965565,6069.688724,-77069.207099
24997.316287,-7698.141797,7254.018232,-75077.358804
24997.318860,-4885.359217,14804.118840,-74158.044206
24997.321433,-592.164754,16876.695478,-76149.892501
24997.324005,-4441.235652,18209.066173,-75690.235202
24997.326578,296.082377,11547.212695,-74617.701505
24997.329151,-4441.235652,8882.471304,-73545.167808
24997.331723,-18505.148550,10807.006753,-73545.167808
24997.334296,41599.573940,3552.988522,-77375.645298
24997.336869,-22206.178260,1332.370696,-74311.263306
24997.339441,-592.164754,-3997.112087,-76456.330700
24997.342014,26499.372724,-4441.235652,-77835.302597
24997.344587,-7402.059420,-8290.306550,-76609.549800
24997.347159,-9622.677246,1924.535449,-75077.358804
24997.349732,22206.178260,6513.812290,-77682.083497
24997.352305,3108.864956,13175.665768,-73698.386908
24997.354877,4293.194464,1924.535449,-74924.139704
24997.357450,7846.182985,6069.688724,-73698.386908
24997.360023,-888.247130,5329.482782,-75077.358804
24997.362595,13767.830521,6365.771101,-75383.797003
24997.365168,5625.565159,3552.988522,-75537.016103
24997.367741,4737.318029,-3552.988522,-75383.797003
24997.370313,5181.441594,-6069.688724,-75537.016103
24997.372886,11991.336260,-7698.141797,-74617.701505
24997.375459,5329.482782,-1184.329507,-75996.673402
24997.378031,148.041188,5329.482782,-76762.768900
24997.380604,24278.754898,740.205942,-77835.302597
24997.383177,-36122.049970,10214.842000,-71859.757712
24997.385749,-1332.370696,22798.343014,-75537.016103
24997.388322,13027.624579,23538.548956,-74464.482406
24997.390895,-6069.688724,16136.489536,-74770.920605
24997.393467,-8438.347739,8438.347739,-75230.577904
24997.396040,17616.901420,-3849.070898,-76149.892501
24997.398613,-18949.272115,2368.659014,-74158.044206
24997.401186,1332.370696,4145.153275,-78448.178995
24997.403758,-2368.659014,14508.036463,-75230.577904
24997.406331,-5477.523971,17320.819043,-73851.606007
24997.408904,1332.370696,11991.336260,-74004.825107
24997.411476,-2516.700203,5921.647536,-74924.139704
24997.414049,-9030.512492,14359.995275,-73085.510509
24997.416622,3256.906145,17024.736666,-75537.016103
24997.419194,-5329.482782,17616.901420,-75843.454302
24997.421767,888.247130,10510.924376,-74158.044206
24997.424340,-14211.954086,9030.512492,-73085.510509
24997.426913,-6365.771101,14508.036463,-73698.386908
24997.429485,38786.791361,4737.318029,-77069.207099
24997.432058,-28275.866984,-1924.535449,-75383.797003
24997.434631,1036.288319,-4885.359217,-77835.302597
24997.437203,32272.979071,-6809.894666,-77988.521696
24997.439776,-8586.388927,-6069.688724,-75996.673402
24997.442349,0.000000,4145.153275,-75843.454302
24997.444922,25018.960840,10362.883188,-74924.139704
24997.447494,5625.565159,11399.171507,-73238.729609
24997.450067,-8142.265362,4885.359217,-74770.920605
24997.452640,17172.777854,1776.494261,-76915.987999
24997.455212,1924.535449,5921.647536,-75843.454302
24997.457785,5921.647536,7105.977043,-74311.263306
24997.460358,10658.965565,1332.370696,-75690.235202
24997.462930,-4293.194464,-4589.276840,-75230.577904
24997.465503,25759.166782,-7402.059420,-75383.797003
24997.468076,444.123565,-7994.224174,-75077.358804
24997.470649,9474.636058,1184.329507,-76609.549800
24997.473221,3108.864956,5181.441594,-76762.768900
24997.475794,23538.548956,444.123565,-78448.178995
24997.478367,-53738.951389,18061.024985,-71706.538613
24997.480939,31532.773129,14656.077652,-76609.549800
24997.483512,-7846.182985,23390.507767,-74464.482406
24997.486085,-9326.594869,14211.954086,-72779.072310
24997.488658,-296.082377,1332.370696,-77375.645298
24997.491230,12731.542202,148.041188,-74311.263306
24997.493803,-21465.972318,3404.947333,-73698.386908
24997.496376,-1628.453072,5921.647536,-78754.617194
24997.498949,5181.441594,15544.324782,-74464.482406
24997.501522,-14211.954086,16876.695478,-73085.510509
24997.504095,12139.377449,4589.276840,-76609.549800
24997.506668,-11103.089130,10362.883188,-74311.263306
24997.509241,-2072.576638,14508.036463,-73545.167808
24997.511813,-3404.947333,19393.395680,-75537.016103
24997.514386,-888.247130,13027.624579,-75843.454302
24997.516959,-4737.318029,10362.883188,-73698.386908
24997.519532,-18801.230927,10807.006753,-73391.948708
24997.522105,28423.908173,10066.800811,-75537.016103
24997.524678,13915.871710,3849.070898,-74924.139704
24997.527251,-13175.665768,6365.771101,-72012.976812
24997.529824,29608.237680,-2220.617826,-74464.482406
24997.532397,1628.453072,-4145.153275,-74924.139704
24997.534970,-11695.253884,-1036.288319,-73851.606007
24997.537542,2220.617826,7550.100608,-76149.892501
24997.540115,13027.624579,9326.594869,-74311.263306
24997.542688,592.164754,2220.617826,-76456.330700
24997.545261,-296.082377,3701.029710,-76609.549800
24997.547834,10214.842000,3404.947333,-75843.454302
24997.550407,10807.006753,7698.141797,-76609.549800
24997.552980,8586.388927,2664.741391,-77835.302597
24997.555553,7254.018232,-148.041188,-76456.330700
24997.558126,3701.029710,-6513.812290,-74924.139704
24997.560699,17024.736666,-7698.141797,-75077.358804
24997.563272,4737.318029,-2220.617826,-76456.330700
24997.565844,-3701.029710,5477.523971,-76762.768900
24997.568417,27535.661042,888.247130,-77375.645298
24997.570990,-31976.896694,9622.677246,-71400.100414
24997.573563,-5625.565159,24130.713709,-74311.263306
24997.576136,13027.624579,23242.466579,-74464.482406
24997.578709,-6661.853478,17764.942608,-73851.606007
24997.581282,-6217.729913,7550.100608,-75077.358804
24997.583855,17024.736666,-5921.647536,-76762.768900
