#time,accel_x,accel_y,accel_z
20700.829225,1184.329507,5921.647536,-75077.358804
20700.831780,1628.453072,6661.853478,-75077.358804
20700.834335,1480.411884,6661.853478,-75077.358804
20700.836889,1924.535449,6513.812290,-75230.577904
20700.839444,2812.782580,6513.812290,-75537.016103
20700.841999,1924.535449,6661.853478,-75077.358804
20700.844553,1184.329507,6661.853478,-75230.577904
20700.847108,2072.576638,6217.729913,-75383.797003
20700.849663,3997.112087,5033.400406,-75690.235202
20700.852218,3108.864956,7846.182985,-75077.358804
20700.854772,6069.688724,6217.729913,-74770.920605
20700.857327,7402.059420,5477.523971,-75230.577904
20700.859882,4737.318029,3701.029710,-75843.454302
20700.862436,7550.100608,2812.782580,-75230.577904
20700.864991,2516.700203,2220.617826,-75230.577904
20700.867546,2220.617826,1628.453072,-75537.016103
20700.870100,2960.823768,-3849.070898,-76762.768900
20700.872655,148.041188,444.123565,-74770.920605
20700.875210,8142.265362,2220.617826,-75690.235202
20700.877764,9030.512492,4293.194464,-76915.987999
20700.880319,5773.606348,7550.100608,-75843.454302
20700.882874,-7402.059420,13915.871710,-74004.825107
20700.885428,592.164754,15840.407159,-74617.701505
20700.887983,-6809.894666,12731.542202,-74770.920605
20700.890538,7254.018232,9770.718434,-74464.482406
20700.893092,7698.141797,5477.523971,-75383.797003
20700.895647,-1036.288319,3701.029710,-75996.673402
20700.898202,592.164754,3552.988522,-76303.111601
20700.900756,-9622.677246,7550.100608,-75230.577904
20700.903311,-1628.453072,11547.212695,-74770.920605
20700.905866,5477.523971,12583.501014,-74770.920605
20700.908421,6957.935855,11547.212695,-74617.701505
20700.910975,1036.288319,6809.894666,-75383.797003
20700.913530,-2368.659014,4589.276840,-75690.235202
20700.916085,-7846.182985,8734.430116,-74924.139704
20700.918639,4145.153275,7402.059420,-76149.892501
20700.921194,-6069.688724,9918.759623,-75383.797003
20700.923592,2664.741391,4589.276840,-74617.701505
20700.925990,-2960.823768,6513.812290,-74464.482406
20700.928389,2516.700203,7698.141797,-75230.577904
20700.930787,-5181.441594,10214.842000,-74004.825107
20700.933185,-148.041188,11695.253884,-74464.482406
20700.935583,148.041188,9178.553681,-74617.701505
20700.937982,2960.823768,9770.718434,-74770.920605
20700.940380,0.000000,12583.501014,-73698.386908
20700.942778,-3404.947333,11547.212695,-74924.139704
20700.945176,-1776.494261,11251.130318,-74158.044206
20700.947574,6217.729913,4589.276840,-74924.139704
20700.949973,2072.576638,2368.659014,-74924.139704
20700.952371,-1480.411884,5921.647536,-75383.797003
20700.954769,-7994.224174,13027.624579,-74924.139704
20700.957167,5181.441594,11103.089130,-75537.016103
20700.959566,-5477.523971,10214.842000,-74004.825107
20700.961964,4885.359217,14508.036463,-74311.263306
20700.964362,16136.489536,1924.535449,-76762.768900
20700.966760,-2516.700203,-4737.318029,-74311.263306
20700.969158,-7550.100608,4293.194464,-74158.044206
20700.971557,9918.759623,7994.224174,-78141.740796
20700.973955,2516.700203,1776.494261,-77222.426198
20700.976353,4589.276840,4293.194464,-72779.072310
20700.978751,11695.253884,5329.482782,-74158.044206
20700.981150,6365.771101,6069.688724,-76456.330700
20700.983548,1628.453072,2664.741391,-75537.016103
20700.985946,4441.235652,592.164754,-75843.454302
20700.988344,-2072.576638,2220.617826,-76303.111601
20700.990743,8290.306550,4293.194464,-75383.797003
20700.993141,-3997.112087,8142.265362,-74924.139704
20700.995539,11547.212695,6661.853478,-75537.016103
20700.997937,-2664.741391,6365.771101,-74311.263306
20701.000335,13027.624579,2516.700203,-75537.016103
20701.002734,-2664.741391,4293.194464,-75537.016103
20701.005132,7698.141797,1776.494261,-77375.645298
20701.007530,-3849.070898,6069.688724,-74924.139704
20701.009928,2368.659014,4885.359217,-74924.139704
20701.012327,3997.112087,7994.224174,-75537.016103
20701.014725,-1480.411884,5329.482782,-75230.577904
20701.017123,11251.130318,2664.741391,-74617.701505
20701.019581,-2812.782580,5181.441594,-76609.549800
20701.022040,10955.047942,4885.359217,-77222.426198
20701.024498,-740.205942,6365.771101,-75230.577904
20701.026957,12139.377449,740.205942,-75077.358804
20701.029415,-3108.864956,1036.288319,-74924.139704
20701.031873,10658.965565,-1184.329507,-76762.768900
20701.034332,-5181.441594,6069.688724,-73851.606007
20701.036790,6957.935855,8734.430116,-76303.111601
20701.039248,-2664.741391,11695.253884,-76303.111601
20701.041707,14063.912898,4589.276840,-75230.577904
20701.044165,7254.018232,296.082377,-74158.044206
20701.046623,-888.247130,-592.164754,-75383.797003
20701.049082,-3552.988522,2516.700203,-76149.892501
20701.051540,24130.713709,-2664.741391,-77682.083497
20701.053999,-13619.789333,2368.659014,-75383.797003
20701.056457,-740.205942,20577.725188,-74924.139704
20701.058915,20281.642811,12583.501014,-76762.768900
20701.061374,-19245.354492,5181.441594,-72625.853210
20701.063832,15988.448347,7402.059420,-73238.729609
20701.066290,-4589.276840,9918.759623,-75077.358804
20701.068749,-3108.864956,6513.812290,-75996.673402
20701.071207,-3997.112087,8882.471304,-75077.358804
20701.073665,2072.576638,9474.636058,-74924.139704
20701.076124,-10214.842000,11547.212695,-74311.263306
20701.078582,9622.677246,10362.883188,-74770.920605
20701.081041,3108.864956,8438.347739,-75383.797003
20701.083499,5773.606348,5773.606348,-75690.235202
20701.085957,-5625.565159,6957.935855,-74924.139704
20701.088416,-4293.194464,4885.359217,-76149.892501
20701.090874,-4441.235652,8882.471304,-74770.920605
20701.093332,4885.359217,10066.800811,-75077.358804
20701.095791,5181.441594,13471.748144,-74617.701505
20701.098249,2664.741391,7698.141797,-75996.673402
20701.100707,5773.606348,3552.988522,-75843.454302
20701.103166,-6809.894666,7402.059420,-74770.920605
20701.105624,1036.288319,8142.265362,-74311.263306
20701.108083,3552.988522,6957.935855,-76609.549800
20701.110541,1332.370696,7994.224174,-75230.577904
20701.112999,4145.153275,6957.935855,-74004.825107
20701.115458,-7846.182985,7698.141797,-74464.482406
20701.117958,1628.453072,7846.182985,-76456.330700
20701.120459,-2516.700203,11547.212695,-74158.044206
20701.122960,888.247130,10807.006753,-74004.825107
20701.125461,0.000000,13471.748144,-74770.920605
20701.127961,592.164754,10807.006753,-75383.797003
20701.130462,-2664.741391,11695.253884,-74158.044206
20701.132963,8142.265362,4145.153275,-75230.577904
20701.135464,-1924.535449,2368.659014,-75843.454302
20701.137964,0.000000,5773.606348,-75383.797003
20701.140465,-4145.153275,13471.748144,-75077.358804
20701.142966,1036.288319,9918.759623,-75690.235202
20701.145467,-1924.535449,9474.636058,-73238.729609
20701.147967,3256.906145,14359.995275,-73238.729609
20701.150468,15988.448347,5625.565159,-76609.549800
20701.152969,-1776.494261,-2516.700203,-75077.358804
20701.155470,-6069.688724,4885.359217,-73545.167808
20701.157970,6365.771101,8142.265362,-77069.207099
20701.160471,8438.347739,-592.164754,-77069.207099
20701.162972,1480.411884,3552.988522,-72472.634111
20701.165473,13175.665768,3701.029710,-76609.549800
20701.167973,-740.205942,7105.977043,-76762.768900
20701.170474,6365.771101,2812.782580,-75537.016103
20701.172975,2072.576638,2072.576638,-75383.797003
20701.175476,2812.782580,2072.576638,-76303.111601
20701.177976,3701.029710,7254.018232,-74004.825107
20701.180477,1332.370696,6365.771101,-75077.358804
20701.182978,10510.924376,7105.977043,-75690.235202
20701.185479,-1628.453072,4737.318029,-74770.920605
20701.187979,11399.171507,3997.112087,-74311.263306
20701.190480,1036.288319,2516.700203,-75230.577904
20701.192981,5773.606348,2812.782580,-76609.549800
20701.195482,1628.453072,4885.359217,-76456.330700
20701.198009,1628.453072,8290.306550,-74617.701505
20701.200536,3256.906145,5033.400406,-76456.330700
20701.203063,7402.059420,4589.276840,-75230.577904
20701.205590,2812.782580,4737.318029,-74004.825107
20701.208118,7698.141797,3997.112087,-76303.111601
20701.210645,3701.029710,3701.029710,-77682.083497
20701.213172,6217.729913,1924.535449,-75230.577904
20701.215699,-2220.617826,1184.329507,-74617.701505
20701.218227,7994.224174,148.041188,-75690.235202
20701.220754,-2220.617826,8290.306550,-74311.263306
20701.223281,5477.523971,8734.430116,-75996.673402
20701.225808,5625.565159,8438.347739,-75383.797003
20701.228335,15692.365970,592.164754,-76149.892501
20701.230863,-444.123565,0.000000,-75077.358804
20701.233390,-8438.347739,1776.494261,-75077.358804
20701.235917,22206.178260,1480.411884,-77222.426198
20701.238444,-1036.288319,1776.494261,-75690.235202
20701.240971,-23982.672521,11843.295072,-73851.606007
20701.243499,18653.189738,13175.665768,-75996.673402
20701.246026,-1628.453072,3701.029710,-76609.549800
20701.248553,-16580.613101,5477.523971,-72779.072310
20701.251080,14063.912898,8290.306550,-75383.797003
20701.253607,-5181.441594,6217.729913,-76915.987999
20701.256135,9030.512492,5625.565159,-76762.768900
20701.258662,-9030.512492,10214.842000,-74311.263306
20701.261189,-3552.988522,10807.006753,-74311.263306
20701.263716,2072.576638,13619.789333,-73851.606007
20701.266243,3404.947333,9178.553681,-75077.358804
20701.268771,2368.659014,7698.141797,-75383.797003
20701.271298,2072.576638,5329.482782,-75690.235202
20701.273825,-888.247130,6217.729913,-75230.577904
20701.276352,-9474.636058,7698.141797,-74004.825107
20701.278879,-1036.288319,10362.883188,-74924.139704
20701.281407,3552.988522,12287.418637,-74924.139704
20701.283934,2812.782580,11695.253884,-74004.825107
20701.286461,888.247130,6957.935855,-76149.892501
20701.288988,-1332.370696,4589.276840,-76456.330700
20701.291515,888.247130,6809.894666,-74464.482406
20701.294043,592.164754,10066.800811,-74617.701505
20701.296570,592.164754,7402.059420,-76303.111601
20701.299097,2664.741391,6513.812290,-75077.358804
20701.301624,-4293.194464,8142.265362,-74004.825107
20701.304151,740.205942,8290.306550,-76762.768900
20701.306679,-6513.812290,10807.006753,-76149.892501
20701.309206,4293.194464,12731.542202,-74617.701505
20701.311733,-3404.947333,12731.542202,-74464.482406
20701.314260,3256.906145,9770.718434,-75230.577904
20701.316787,740.205942,5329.482782,-75077.358804
20701.319336,5033.400406,3849.070898,-74464.482406
20701.321882,-6513.812290,5773.606348,-75843.454302
20701.324428,-7698.141797,12879.583391,-75843.454302
20701.326974,2368.659014,11547.212695,-74770.920605
20701.329520,-148.041188,8290.306550,-74004.825107
20701.332066,3256.906145,12287.418637,-74770.920605
20701.334612,7105.977043,11399.171507,-75383.797003
20701.337158,740.205942,-2664.741391,-75843.454302
20701.339704,-4589.276840,2960.823768,-74004.825107
20701.342251,3552.988522,6809.894666,-76609.549800
20701.344797,9178.553681,888.247130,-77222.426198
20701.347343,592.164754,3256.906145,-73085.510509
20701.349889,12583.501014,5181.441594,-74311.263306
20701.352435,-148.041188,7550.100608,-75537.016103
20701.354981,6513.812290,4885.359217,-75843.454302
20701.357527,2368.659014,1480.411884,-75996.673402
20701.360073,2664.741391,888.247130,-75383.797003
20701.362619,4293.194464,5477.523971,-74617.701505
20701.365165,3108.864956,4885.359217,-75690.235202
20701.367712,1628.453072,8142.265362,-74617.701505
20701.370258,4293.194464,6661.853478,-74617.701505
20701.372804,2516.700203,4737.318029,-74924.139704
20701.375350,8734.430116,3701.029710,-74770.920605
20701.377896,2072.576638,3849.070898,-75537.016103
20701.380442,6217.729913,2368.659014,-77528.864398
20701.382988,-2220.617826,7550.100608,-74770.920605
20701.385534,7402.059420,6365.771101,-75690.235202
20701.388080,1184.329507,4293.194464,-75996.673402
20701.390626,11695.253884,3849.070898,-74311.263306
20701.393173,3552.988522,3849.070898,-74464.482406
20701.395719,5181.441594,2516.700203,-77528.864398
20701.398265,1332.370696,2368.659014,-75383.797003
20701.400811,1480.411884,1776.494261,-74158.044206
20701.403357,2516.700203,6365.771101,-75230.577904
20701.405903,2812.782580,7698.141797,-75537.016103
20701.408449,9326.594869,8142.265362,-75077.358804
20701.410995,10066.800811,2812.782580,-75843.454302
20701.413541,4737.318029,-1628.453072,-75230.577904
20701.416087,-10510.924376,-592.164754,-75383.797003
20701.418633,18801.230927,2812.782580,-75996.673402
20701.421193,-1924.535449,1924.535449,-75690.235202
20701.423752,-22798.343014,12879.583391,-74464.482406
20701.426311,22502.260637,12583.501014,-75996.673402
20701.428870,-7550.100608,2960.823768,-75843.454302
20701.431429,-9770.718434,3701.029710,-74464.482406
20701.433989,7402.059420,8734.430116,-75690.235202
20701.436548,888.247130,9030.512492,-76915.987999
20701.439107,3108.864956,9178.553681,-76149.892501
20701.441666,-2812.782580,9474.636058,-74311.263306
20701.444225,-9326.594869,11103.089130,-74158.044206
20701.446785,5625.565159,11547.212695,-74617.701505
20701.449344,-740.205942,8290.306550,-74004.825107
20701.451903,7105.977043,8142.265362,-75230.577904
20701.454462,2220.617826,5181.441594,-76609.549800
20701.457021,-3256.906145,5625.565159,-74924.139704
20701.459581,-4885.359217,6661.853478,-75077.358804
20701.462140,-1924.535449,10362.883188,-75230.577904
20701.464699,3404.947333,12139.377449,-74158.044206
20701.467258,4145.153275,9622.677246,-74617.701505
20701.469817,-1628.453072,7254.018232,-74924.139704
20701.472377,148.041188,3404.947333,-75383.797003
20701.474936,-1332.370696,8438.347739,-75077.358804
20701.477495,-1036.288319,9178.553681,-75383.797003
20701.480054,4293.194464,8586.388927,-75537.016103
20701.482613,-5181.441594,7846.182985,-74004.825107
20701.485173,4145.153275,7550.100608,-73391.948708
20701.487732,-7550.100608,10510.924376,-74924.139704
20701.490291,1480.411884,13323.706956,-75996.673402
20701.492850,-4589.276840,15988.448347,-73698.386908
20701.495409,7105.977043,11547.212695,-74617.701505
20701.497969,-592.164754,3997.112087,-75996.673402
20701.500528,4885.359217,2664.741391,-74770.920605
20701.503087,-10362.883188,7846.182985,-75077.358804
20701.505646,-5181.441594,13767.830521,-76609.549800
20701.508205,1480.411884,11547.212695,-75996.673402
20701.510765,1184.329507,9178.553681,-73698.386908
20701.513324,2960.823768,11547.212695,-74617.701505
20701.515883,10066.800811,7698.141797,-75383.797003
20701.518442,2072.576638,-1332.370696,-74924.139704
20701.521001,-8882.471304,4441.235652,-74464.482406
20701.523568,6069.688724,6957.935855,-77375.645298
20701.526134,4441.235652,444.123565,-76609.549800
20701.528700,7550.100608,1776.494261,-73238.729609
20701.531266,6513.812290,5181.441594,-74004.825107
20701.533833,3552.988522,7402.059420,-76456.330700
20701.536399,3108.864956,3256.906145,-75996.673402
20701.538965,4145.153275,2072.576638,-75077.358804
20701.541531,4441.235652,592.164754,-76303.111601
20701.544098,4293.194464,4589.276840,-74924.139704
20701.546664,5625.565159,5921.647536,-75537.016103
20701.549230,-1924.535449,7105.977043,-75537.016103
20701.551796,8438.347739,7698.141797,-74924.139704
20701.554363,-1184.329507,3404.947333,-75077.358804
20701.556929,12731.542202,444.123565,-76149.892501
20701.559495,-2664.741391,6365.771101,-74924.139704
20701.562061,9770.718434,1332.370696,-76456.330700
20701.564628,6661.853478,7698.141797,-75537.016103
20701.567194,4441.235652,4589.276840,-75537.016103
20701.569760,6809.894666,2664.741391,-75690.235202
20701.572326,8586.388927,2812.782580,-75843.454302
20701.574893,740.205942,4589.276840,-76303.111601
20701.577459,4885.359217,2220.617826,-77528.864398
20701.580025,-296.082377,3404.947333,-76149.892501
20701.582591,2220.617826,3256.906145,-75230.577904
20701.585158,3256.906145,5181.441594,-75230.577904
20701.587724,12287.418637,3256.906145,-76456.330700
20701.590290,4885.359217,3256.906145,-74924.139704
20701.592856,1628.453072,740.205942,-75690.235202
20701.595422,-2368.659014,2664.741391,-76609.549800
20701.597989,15840.407159,1480.411884,-75996.673402
20701.600555,-6217.729913,1776.494261,-74924.139704
20701.603121,-5181.441594,14211.954086,-75077.358804
20701.605687,17912.983796,11991.336260,-75996.673402
20701.608254,-8734.430116,2220.617826,-75230.577904
20701.610820,5773.606348,7402.059420,-74311.263306
20701.613386,-1036.288319,10807.006753,-75077.358804
20701.615952,-5329.482782,9178.553681,-76456.330700
20701.618519,6365.771101,8882.471304,-76149.892501
20701.621085,-4589.276840,12583.501014,-73698.386908
20701.623651,-6809.894666,10214.842000,-74924.139704
20701.626223,2072.576638,10955.047942,-74158.044206
20701.628795,2516.700203,7550.100608,-74617.701505
20701.631366,7846.182985,5773.606348,-75843.454302
20701.633938,-2960.823768,5773.606348,-75537.016103
20701.636510,-1776.494261,6513.812290,-75996.673402
20701.639082,-7994.224174,7698.141797,-75537.016103
20701.641653,888.247130,10510.924376,-73391.948708
20701.644225,296.082377,11399.171507,-74004.825107
20701.646797,2516.700203,8290.306550,-75077.358804
20701.649369,1036.288319,4885.359217,-74924.139704
20701.651941,-1184.329507,6809.894666,-74617.701505
20701.654512,444.123565,7994.224174,-75690.235202
20701.657084,-444.123565,9178.553681,-75690.235202
20701.659656,-5921.647536,8586.388927,-74158.044206
20701.662228,3256.906145,8586.388927,-74311.263306
20701.664799,-5181.441594,10955.047942,-74158.044206
20701.667371,2664.741391,11547.212695,-75537.016103
20701.669943,-6069.688724,15396.283594,-75537.016103
20701.672515,8142.265362,8734.430116,-74464.482406
20701.675086,-2220.617826,5477.523971,-74617.701505
20701.677658,4293.194464,2812.782580,-75537.016103
20701.680230,-8734.430116,10807.006753,-74924.139704
20701.682802,-1184.329507,13767.830521,-76149.892501
20701.685374,2072.576638,9178.553681,-75690.235202
20701.687945,296.082377,11251.130318,-73851.606007
20701.690517,7254.018232,11399.171507,-75077.358804
20701.693089,10658.965565,-1036.288319,-77375.645298
20701.695661,-13323.706956,-1036.288319,-74004.825107
20701.698232,5329.482782,7402.059420,-75537.016103
20701.700804,6513.812290,2516.700203,-78294.959896
20701.703376,7254.018232,148.041188,-74617.701505
20701.705948,1036.288319,3849.070898,-73391.948708
20701.708519,9770.718434,6069.688724,-75996.673402
20701.711091,2368.659014,6365.771101,-76149.892501
20701.713663,592.164754,3997.112087,-75996.673402
20701.716235,10658.965565,740.205942,-76609.549800
20701.718807,-1924.535449,1924.535449,-74924.139704
20701.721378,9474.636058,2516.700203,-75537.016103
20701.723950,-1184.329507,6365.771101,-75690.235202
20701.726522,4293.194464,6661.853478,-75077.358804
20701.729098,2664.741391,7846.182985,-75690.235202
20701.731673,3404.947333,2516.700203,-76456.330700
20701.734249,9030.512492,3256.906145,-76303.111601
20701.736825,3256.906145,2516.700203,-76149.892501
20701.739400,5477.523971,7550.100608,-74924.139704
20701.741976,7105.977043,5477.523971,-75843.454302
20701.744552,-1628.453072,3404.947333,-75996.673402
20701.747128,10807.006753,1924.535449,-75537.016103
20701.749703,-3108.864956,3997.112087,-75077.358804
20701.752279,7698.141797,2368.659014,-77528.864398
20701.754855,592.164754,4737.318029,-75843.454302
20701.757430,2072.576638,4145.153275,-74617.701505
20701.760006,9474.636058,4293.194464,-74617.701505
20701.762582,11251.130318,1332.370696,-75843.454302
20701.765157,3404.947333,1480.411884,-74770.920605
20701.767733,-5477.523971,4441.235652,-75077.358804
20701.770309,15692.365970,3256.906145,-76609.549800
20701.772885,-1480.411884,888.247130,-75843.454302
20701.775460,-13323.706956,8142.265362,-73085.510509
20701.778036,14063.912898,11991.336260,-75383.797003
20701.780612,-1036.288319,5181.441594,-76456.330700
20701.783187,-7994.224174,4589.276840,-74158.044206
20701.785763,3108.864956,8290.306550,-75077.358804
20701.788339,-1628.453072,8142.265362,-76762.768900
20701.790915,3404.947333,9178.553681,-75230.577904
20701.793490,-4885.359217,11399.171507,-74464.482406
20701.796066,-3108.864956,11547.212695,-74924.139704
20701.798642,-2516.700203,12435.459826,-74464.482406
20701.801217,3997.112087,6957.935855,-74924.139704
20701.803793,-1776.494261,7846.182985,-74770.920605
20701.806369,6069.688724,4885.359217,-75996.673402
20701.808945,-5477.523971,6217.729913,-75690.235202
20701.811523,-2072.576638,6957.935855,-75230.577904
20701.814102,-9622.677246,10807.006753,-73851.606007
20701.816681,5181.441594,10955.047942,-74924.139704
20701.819260,7846.182985,11251.130318,-74004.825107
20701.821839,-8142.265362,6365.771101,-73851.606007
20701.824418,9474.636058,2960.823768,-75843.454302
20701.826997,2960.823768,6809.894666,-76609.549800
20701.829576,-6069.688724,10066.800811,-74311.263306
20701.832155,2664.741391,9474.636058,-75537.016103
20701.834734,-7254.018232,9918.759623,-74158.044206
20701.837313,9030.512492,11251.130318,-74004.825107
20701.839892,-9918.759623,13175.665768,-74770.920605
20701.842471,9030.512492,11695.253884,-76303.111601
20701.845050,-5329.482782,7698.141797,-74617.701505
20701.847629,13175.665768,3108.864956,-75690.235202
20701.850208,-17172.777854,7254.018232,-75077.358804
20701.852787,2516.700203,12879.583391,-75077.358804
20701.855366,-2220.617826,12435.459826,-75230.577904
20701.857945,3404.947333,8290.306550,-74158.044206
20701.860524,0.000000,11399.171507,-73698.386908
20701.863102,10362.883188,6957.935855,-75230.577904
20701.865681,2664.741391,-2516.700203,-75996.673402
20701.868260,-740.205942,6365.771101,-74464.482406
20701.870839,5033.400406,7698.141797,-77222.426198
20701.873418,6513.812290,1036.288319,-76303.111601
20701.875997,6957.935855,888.247130,-74004.825107
20701.878576,5625.565159,3701.029710,-74311.263306
20701.881155,2072.576638,7550.100608,-75843.454302
20701.883734,4737.318029,4441.235652,-76609.549800
20701.886313,2368.659014,4145.153275,-74924.139704
20701.888892,4737.318029,592.164754,-75537.016103
20701.891471,3404.947333,3108.864956,-74924.139704
20701.894050,2516.700203,4589.276840,-75537.016103
20701.896629,5773.606348,6217.729913,-75537.016103
20701.899208,1480.411884,5921.647536,-75230.577904
20701.901787,5033.400406,9622.677246,-74770.920605
20701.904366,3256.906145,2220.617826,-76609.549800
20701.906945,2664.741391,5181.441594,-75843.454302
20701.909524,9918.759623,7402.059420,-74004.825107
20701.912103,5773.606348,6809.894666,-75383.797003
20701.914681,6365.771101,4293.194464,-75230.577904
20701.917259,3404.947333,1924.535449,-74770.920605
20701.919838,8142.265362,3256.906145,-74617.701505
20701.922416,148.041188,4441.235652,-74924.139704
20701.924994,3997.112087,3256.906145,-77222.426198
20701.927573,1036.288319,3701.029710,-74924.139704
20701.930151,11991.336260,1924.535449,-75230.577904
20701.932730,5773.606348,-148.041188,-75383.797003
20701.935308,-3108.864956,1332.370696,-75230.577904
20701.937886,7105.977043,6809.894666,-75230.577904
20701.940465,11991.336260,4885.359217,-75383.797003
20701.943043,-4441.235652,1628.453072,-75230.577904
20701.945622,148.041188,13027.624579,-74770.920605
20701.948200,13323.706956,9918.759623,-75383.797003
20701.950778,-5329.482782,2664.741391,-75537.016103
20701.953357,1184.329507,6365.771101,-74311.263306
20701.955935,-1036.288319,11399.171507,-74004.825107
20701.958513,-3849.070898,8438.347739,-76149.892501
20701.961092,444.123565,9030.512492,-75383.797003
20701.963670,-1776.494261,12731.542202,-74464.482406
20701.966249,-7846.182985,12139.377449,-74464.482406
20701.968827,2368.659014,10807.006753,-74770.920605
20701.971405,2516.700203,6513.812290,-75077.358804
20701.973984,10807.006753,5329.482782,-75996.673402
20701.976562,-4589.276840,4737.318029,-75537.016103
20701.979141,1480.411884,6365.771101,-74924.139704
20701.981719,-11695.253884,7105.977043,-75843.454302
20701.984297,1332.370696,12583.501014,-74004.825107
20701.986876,-3256.906145,12583.501014,-73391.948708
20701.989454,10807.006753,5773.606348,-75996.673402
20701.992032,-8734.430116,7254.018232,-74617.701505
20701.994611,1036.288319,7254.018232,-75230.577904
20701.997189,-3997.112087,9178.553681,-75383.797003
20701.999768,-888.247130,8586.388927,-75383.797003
20702.002346,-2368.659014,8290.306550,-74617.701505
20702.004924,-1628.453072,10510.924376,-73698.386908
20702.007503,4885.359217,14508.036463,-73545.167808
20702.010081,0.000000,11843.295072,-75690.235202
20702.012659,296.082377,8586.388927,-75996.673402
20702.015238,-4737.318029,5329.482782,-74158.044206
20702.017816,-5033.400406,8438.347739,-75383.797003
20702.020395,-5033.400406,11251.130318,-75230.577904
20702.022974,3849.070898,10955.047942,-73545.167808
20702.025552,740.205942,10362.883188,-73698.386908
20702.028131,3256.906145,10362.883188,-75843.454302
20702.030710,5921.647536,3256.906145,-75690.235202
20702.033288,444.123565,-3552.988522,-75077.358804
20702.035867,-5033.400406,7550.100608,-75690.235202
20702.038445,11103.089130,6217.729913,-77528.864398
20702.041024,2812.782580,1776.494261,-75690.235202
20702.043603,7994.224174,1924.535449,-74311.263306
20702.046181,5033.400406,3701.029710,-75230.577904
20702.048760,2220.617826,5773.606348,-75690.235202
20702.051338,1480.411884,5033.400406,-75690.235202
20702.053917,6957.935855,3404.947333,-75996.673402
20702.056496,2072.576638,1628.453072,-75537.016103
20702.059074,7846.182985,1924.535449,-75690.235202
20702.061653,296.082377,4885.359217,-75077.358804
20702.064231,6217.729913,7254.018232,-75077.358804
20702.066810,1776.494261,5625.565159,-75383.797003
20702.069389,8882.471304,5181.441594,-74617.701505
20702.071967,2368.659014,3849.070898,-75077.358804
20702.074546,1184.329507,6365.771101,-74617.701505
20702.077124,7698.141797,6217.729913,-75383.797003
20702.079703,1332.370696,5181.441594,-74770.920605
20702.082282,7994.224174,3256.906145,-74770.920605
20702.084860,-592.164754,2812.782580,-74617.701505
20702.087439,7846.182985,2516.700203,-75996.673402
20702.090017,-888.247130,4589.276840,-75383.797003
20702.092596,8586.388927,1628.453072,-76149.892501
20702.095175,8290.306550,592.164754,-75537.016103
20702.097753,8734.430116,-592.164754,-75537.016103
20702.100332,-6809.894666,2072.576638,-74617.701505
20702.102910,11843.295072,5773.606348,-76609.549800
20702.105489,9918.759623,4885.359217,-74924.139704
20702.108068,-15692.365970,7846.182985,-74158.044206
20702.110646,14211.954086,13175.665768,-74924.139704
20702.113225,-2812.782580,6365.771101,-75077.358804
20702.115804,-5181.441594,3108.864956,-74158.044206
20702.118382,-148.041188,7105.977043,-75230.577904
20702.120961,-1628.453072,11399.171507,-75230.577904
20702.123539,-888.247130,10066.800811,-75383.797003
20702.126118,592.164754,8438.347739,-75537.016103
20702.128696,-2516.700203,12287.418637,-74464.482406
20702.131275,-5329.482782,13619.789333,-74158.044206
20702.133853,2960.823768,9770.718434,-75230.577904
20702.136432,296.082377,6661.853478,-75230.577904
20702.139010,8438.347739,6069.688724,-75383.797003
20702.141589,-2368.659014,3701.029710,-75843.454302
20702.144168,-2664.741391,6069.688724,-75383.797003
20702.146746,-6957.935855,8734.430116,-74004.825107
20702.149325,7105.977043,10066.800811,-75690.235202
20702.151903,-8882.471304,12879.583391,-73698.386908
20702.154482,9770.718434,6365.771101,-75383.797003
20702.157060,-5773.606348,5329.482782,-74464.482406
20702.159639,7254.018232,9622.677246,-74770.920605
20702.162217,-9178.553681,10362.883188,-75537.016103
20702.164796,2220.617826,9030.512492,-75537.016103
20702.167375,-6069.688724,9178.553681,-73698.386908
20702.169953,7105.977043,11547.212695,-74004.825107
20702.172532,-4293.194464,11547.212695,-74464.482406
20702.175110,6809.894666,8290.306550,-75690.235202
20702.177689,-11251.130318,8290.306550,-75230.577904
20702.180267,-1184.329507,8882.471304,-74924.139704
20702.182846,-7698.141797,11695.253884,-74924.139704
20702.185424,7550.100608,7846.182985,-75537.016103
20702.188003,-1184.329507,9918.759623,-74004.825107
20702.190581,5921.647536,10807.006753,-75537.016103
20702.193160,7550.100608,-1332.370696,-77835.302597
20702.195739,-9326.594869,-888.247130,-73851.606007
20702.198317,5181.441594,8586.388927,-75077.358804
20702.200896,9178.553681,5921.647536,-78141.740796
20702.203474,4589.276840,2516.700203,-75230.577904
20702.206053,6661.853478,2664.741391,-73085.510509
20702.208631,6069.688724,3404.947333,-75690.235202
20702.211210,1184.329507,4441.235652,-75996.673402
20702.213788,3552.988522,3552.988522,-75230.577904
20702.216367,6957.935855,3552.988522,-75843.454302
20702.218945,6217.729913,1480.411884,-75537.016103
20702.221524,6217.729913,2664.741391,-75230.577904
20702.224101,0.000000,4441.235652,-75537.016103
20702.226678,-592.164754,5181.441594,-76303.111601
20702.229255,444.123565,5033.400406,-75230.577904
20702.231832,9770.718434,6809.894666,-74617.701505
20702.234409,592.164754,1480.411884,-75996.673402
20702.236987,9178.553681,6809.894666,-75843.454302
20702.239564,-3849.070898,6957.935855,-74158.044206
20702.242141,10510.924376,2812.782580,-75383.797003
20702.244718,-1924.535449,3997.112087,-75383.797003
20702.247295,9622.677246,2368.659014,-74617.701505
20702.249872,-2072.576638,3997.112087,-74311.263306
20702.252449,11251.130318,888.247130,-76149.892501
20702.255026,3997.112087,1184.329507,-75537.016103
20702.257603,13471.748144,-1332.370696,-75690.235202
20702.260180,-8290.306550,2960.823768,-74924.139704
20702.262757,11251.130318,5773.606348,-76456.330700
20702.265335,9622.677246,4293.194464,-76609.549800
20702.267912,-3849.070898,3256.906145,-75077.358804
20702.270489,2072.576638,13767.830521,-74004.825107
20702.273066,8290.306550,7994.224174,-76609.549800
20702.275643,-5033.400406,3552.988522,-74464.482406
20702.278220,296.082377,7105.977043,-74464.482406
20702.280797,-2368.659014,11399.171507,-75230.577904
20702.283374,-444.123565,9770.718434,-75690.235202
20702.285951,2072.576638,8882.471304,-75383.797003
20702.288528,-5773.606348,12139.377449,-75230.577904
20702.291105,-3256.906145,12287.418637,-74311.263306
20702.293683,-4737.318029,12583.501014,-74617.701505
20702.296260,5625.565159,6809.894666,-76149.892501
20702.298837,1184.329507,7105.977043,-74617.701505
20702.301414,7994.224174,3701.029710,-76149.892501
20702.303991,-8882.471304,6365.771101,-76149.892501
20702.306568,-148.041188,6513.812290,-76456.330700
20702.309145,-4885.359217,10658.965565,-74770.920605
20702.311722,740.205942,12583.501014,-74158.044206
20702.314299,6217.729913,7550.100608,-75383.797003
20702.316876,-11695.253884,6069.688724,-75230.577904
20702.319453,7698.141797,9030.512492,-75537.016103
20702.322031,-9918.759623,11399.171507,-75077.358804
20702.324608,2960.823768,8142.265362,-75690.235202
20702.327182,-4441.235652,12879.583391,-74004.825107
20702.329758,6069.688724,10362.883188,-74464.482406
20702.332334,740.205942,12583.501014,-74770.920605
20702.334910,888.247130,8290.306550,-75996.673402
20702.337485,-9326.594869,11399.171507,-74004.825107
20702.340061,-9030.512492,12287.418637,-74311.263306
20702.342637,6365.771101,7994.224174,-75537.016103
20702.345213,-1776.494261,8142.265362,-74770.920605
20702.347789,6069.688724,11103.089130,-74004.825107
20702.350365,4293.194464,6809.894666,-75996.673402
20702.352941,5773.606348,-2664.741391,-75537.016103
20702.355517,-12287.418637,3701.029710,-74311.263306
20702.358092,11103.089130,10362.883188,-76609.549800
20702.360668,5033.400406,3404.947333,-76303.111601
20702.363244,8438.347739,888.247130,-74464.482406
20702.365820,3256.906145,3997.112087,-74004.825107
20702.368396,5625.565159,3552.988522,-75996.673402
20702.370972,296.082377,3108.864956,-76303.111601
20702.373548,6957.935855,2220.617826,-75537.016103
20702.376124,4885.359217,2812.782580,-75383.797003
20702.378700,7698.141797,2812.782580,-75230.577904
20702.381275,5625.565159,4293.194464,-75383.797003
20702.383851,-3404.947333,5181.441594,-76149.892501
20702.386427,740.205942,4293.194464,-76303.111601
20702.389003,7698.141797,6809.894666,-75383.797003
20702.391579,3552.988522,2368.659014,-75843.454302
20702.394155,7254.018232,7254.018232,-75843.454302
20702.396731,1628.453072,6809.894666,-74004.825107
20702.399307,11991.336260,4589.276840,-74617.701505
20702.401882,-5773.606348,4145.153275,-75843.454302
20702.404458,10807.006753,888.247130,-76456.330700
20702.407034,-1036.288319,5181.441594,-74311.263306
20702.409610,17024.736666,148.041188,-76149.892501
20702.412186,296.082377,296.082377,-75996.673402
20702.414762,11547.212695,-2368.659014,-75996.673402
20702.417338,-7254.018232,3997.112087,-74004.825107
20702.419914,11547.212695,5773.606348,-75230.577904
20702.422490,8586.388927,2812.782580,-76303.111601
20702.425065,-15248.242405,7846.182985,-74158.044206
20702.427641,16876.695478,11991.336260,-74311.263306
20702.430217,-7550.100608,4441.235652,-75690.235202
20702.432792,-1924.535449,3701.029710,-74004.825107
20702.435367,-2960.823768,9622.677246,-73698.386908
20702.437943,2516.700203,10955.047942,-75996.673402
20702.440518,-148.041188,9622.677246,-75383.797003
20702.443093,-444.123565,9770.718434,-73698.386908
20702.445668,-6217.729913,12583.501014,-74617.701505
20702.448244,-5477.523971,12879.583391,-74464.482406
20702.450819,592.164754,10955.047942,-74004.825107
20702.453394,4589.276840,6365.771101,-75690.235202
20702.455970,4885.359217,6513.812290,-75690.235202
20702.458545,4293.194464,3849.070898,-75690.235202
20702.461120,-5181.441594,6069.688724,-75996.673402
20702.463696,-444.123565,10955.047942,-74311.263306
20702.466271,-5181.441594,12879.583391,-73238.729609
20702.468846,6661.853478,10658.965565,-75230.577904
20702.471421,-2812.782580,5921.647536,-74770.920605
20702.473997,5625.565159,8438.347739,-75690.235202
20702.476572,-12731.542202,9622.677246,-74617.701505
20702.479147,3997.112087,10066.800811,-74617.701505
20702.481723,-7550.100608,10807.006753,-73851.606007
20702.484298,6957.935855,10214.842000,-74464.482406
20702.486873,-1332.370696,10510.924376,-74464.482406
20702.489449,1184.329507,9622.677246,-74311.263306
20702.492024,-9770.718434,12731.542202,-74924.139704
20702.494599,-5329.482782,11991.336260,-75383.797003
20702.497174,6809.894666,6957.935855,-75230.577904
20702.499750,-3108.864956,6365.771101,-74311.263306
20702.502325,9770.718434,8882.471304,-75383.797003
20702.504900,3108.864956,4145.153275,-76149.892501
20702.507476,2664.741391,-2664.741391,-75230.577904
20702.510051,-7550.100608,5773.606348,-75077.358804
20702.512626,10066.800811,10658.965565,-76303.111601
20702.515202,5921.647536,3552.988522,-75537.016103
20702.517777,7698.141797,1628.453072,-74770.920605
20702.520352,5773.606348,3404.947333,-75077.358804
20702.522927,3108.864956,3256.906145,-76456.330700
20702.525503,2664.741391,2812.782580,-75996.673402
20702.528078,5625.565159,1776.494261,-75843.454302
20702.530653,6217.729913,3256.906145,-75230.577904
20702.533171,4293.194464,3849.070898,-74924.139704
20702.535689,2516.700203,4145.153275,-75383.797003
20702.538207,1036.288319,4885.359217,-76609.549800
20702.540725,1628.453072,7105.977043,-75843.454302
20702.543243,3256.906145,4885.359217,-76303.111601
20702.545761,2072.576638,4885.359217,-75537.016103
20702.548280,7846.182985,5625.565159,-75996.673402
20702.550798,3552.988522,6217.729913,-75077.358804
20702.553316,4885.359217,3849.070898,-74004.825107
20702.555834,3552.988522,2368.659014,-75690.235202
20702.558352,3108.864956,3552.988522,-76149.892501
20702.560870,12139.377449,1332.370696,-75383.797003
20702.563388,3404.947333,296.082377,-75537.016103
20702.565906,9770.718434,-3108.864956,-77222.426198
20702.568424,-5033.400406,1776.494261,-74770.920605
20702.570942,8290.306550,6365.771101,-74924.139704
20702.573460,11695.253884,4589.276840,-75843.454302
20702.575978,-6809.894666,4885.359217,-74464.482406
20702.578496,14656.077652,13915.871710,-74004.825107
20702.581014,-2220.617826,5033.400406,-75537.016103
20702.583532,-9474.636058,2516.700203,-74464.482406
20702.586050,1924.535449,7402.059420,-73698.386908
20702.588568,-3404.947333,12287.418637,-75537.016103
20702.591086,1776.494261,10807.006753,-75690.235202
20702.593604,-296.082377,10066.800811,-74617.701505
20702.596122,-4293.194464,13027.624579,-74158.044206
20702.598640,-4589.276840,11991.336260,-75077.358804
20702.601158,-2220.617826,10658.965565,-74311.263306
20702.603676,6513.812290,7550.100608,-75690.235202
20702.606194,-3552.988522,7402.059420,-74617.701505
20702.608712,10066.800811,3404.947333,-76149.892501
20702.611230,-13619.789333,5033.400406,-75996.673402
20702.613748,6365.771101,5329.482782,-75690.235202
20702.616266,-14211.954086,12287.418637,-73545.167808
20702.618784,4293.194464,10807.006753,-75230.577904
20702.621302,-2220.617826,4737.318029,-75383.797003
20702.623820,5033.400406,7698.141797,-74770.920605
20702.626338,-2960.823768,10066.800811,-75077.358804
20702.628856,-2664.741391,10658.965565,-74464.482406
20702.631374,-1628.453072,8734.430116,-75230.577904
20702.633905,1924.535449,10807.006753,-74158.044206
20702.636435,888.247130,10658.965565,-74617.701505
20702.638966,-4737.318029,12583.501014,-74464.482406
20702.641497,-8882.471304,13915.871710,-75077.358804
20702.644027,-148.041188,12139.377449,-74311.263306
20702.646558,2516.700203,5921.647536,-74464.482406
20702.649089,-1332.370696,7254.018232,-74311.263306
20702.651619,8882.471304,6809.894666,-76303.111601
20702.654150,6809.894666,-592.164754,-75690.235202
20702.656680,-6661.853478,444.123565,-74004.825107
20702.659211,2960.823768,9474.636058,-75996.673402
20702.661742,7698.141797,5921.647536,-77222.426198
20702.664272,7105.977043,3108.864956,-74617.701505
20702.666803,4145.153275,1924.535449,-74158.044206
20702.669334,7550.100608,2960.823768,-75690.235202
20702.671864,2812.782580,2368.659014,-75537.016103
20702.674395,3701.029710,1924.535449,-75537.016103
20702.676926,5329.482782,1480.411884,-76303.111601
20702.679456,11399.171507,3108.864956,-75077.358804
20702.681987,-444.123565,4885.359217,-75690.235202
20702.684517,4293.194464,5181.441594,-75843.454302
20702.687048,-296.082377,7698.141797,-74004.825107
20702.689579,3108.864956,5773.606348,-74770.920605
20702.692109,7402.059420,3404.947333,-74617.701505
20702.694640,-1924.535449,8290.306550,-74311.263306
20702.697171,8882.471304,5329.482782,-76149.892501
20702.699701,2960.823768,4885.359217,-75230.577904
20702.702232,-592.164754,2516.700203,-74924.139704
20702.704763,9326.594869,740.205942,-77069.207099
20702.707293,3997.112087,1184.329507,-76456.330700
20702.709824,11399.171507,296.082377,-74924.139704
20702.712355,2368.659014,-888.247130,-76303.111601
20702.714885,-444.123565,592.164754,-76456.330700
20702.717416,6513.812290,6513.812290,-74158.044206
20702.719946,11695.253884,4145.153275,-75537.016103
20702.722477,-13175.665768,7698.141797,-74464.482406
20702.725008,13767.830521,12731.542202,-74464.482406
20702.727538,-2368.659014,6661.853478,-75690.235202
20702.730069,-8290.306550,3404.947333,-74464.482406
20702.732600,2516.700203,7254.018232,-74464.482406
20702.735141,-4589.276840,11103.089130,-75383.797003
20702.737682,3108.864956,10510.924376,-75077.358804
20702.740223,0.000000,8586.388927,-75383.797003
20702.742764,-2960.823768,13619.789333,-75077.358804
20702.745305,-6661.853478,13027.624579,-74158.044206
20702.747846,592.164754,10807.006753,-74770.920605
20702.750388,4589.276840,6661.853478,-75996.673402
20702.752929,2960.823768,7846.182985,-74158.044206
20702.755470,-148.041188,5477.523971,-75230.577904
20702.758011,444.123565,6069.688724,-75996.673402
20702.760552,-8290.306550,9918.759623,-74464.482406
20702.763093,2960.823768,9030.512492,-75230.577904
20702.765634,-1480.411884,7698.141797,-75230.577904
20702.768176,6513.812290,7105.977043,-73391.948708
20702.770717,-4441.235652,8142.265362,-75690.235202
20702.773258,-2368.659014,10510.924376,-76609.549800
20702.775799,-4145.153275,9622.677246,-74924.139704
20702.778340,1036.288319,9770.718434,-74464.482406
20702.780881,-740.205942,10066.800811,-75077.358804
20702.783422,-2368.659014,12435.459826,-74158.044206
20702.785963,-9474.636058,14804.118840,-74311.263306
20702.788505,-2664.741391,13619.789333,-75690.235202
20702.791046,-592.164754,6513.812290,-74617.701505
20702.793587,592.164754,6661.853478,-74004.825107
20702.796128,4293.194464,6809.894666,-75996.673402
20702.798669,12139.377449,1628.453072,-76456.330700
20702.801210,-1184.329507,-1924.535449,-74924.139704
20702.803751,3701.029710,6809.894666,-75843.454302
20702.806293,4441.235652,9770.718434,-76303.111601
20702.808834,5921.647536,3849.070898,-75077.358804
20702.811375,7994.224174,3108.864956,-73698.386908
20702.813916,7698.141797,3256.906145,-75230.577904
20702.816457,888.247130,2072.576638,-75843.454302
20702.818998,3701.029710,1776.494261,-76609.549800
20702.821539,6069.688724,1036.288319,-76456.330700
20702.824080,7698.141797,3256.906145,-75996.673402
20702.826622,3701.029710,4737.318029,-75077.358804
20702.829163,888.247130,4293.194464,-76149.892501
20702.831704,1036.288319,4441.235652,-76609.549800
20702.834245,1036.288319,6809.894666,-74617.701505
20702.836794,3108.864956,5625.565159,-75077.358804
20702.839344,2664.741391,6661.853478,-75996.673402
20702.841893,10658.965565,6365.771101,-75230.577904
20702.844442,5033.400406,3849.070898,-75843.454302
20702.846992,2664.741391,2664.741391,-75077.358804
20702.849541,6513.812290,1480.411884,-75843.454302
20702.852090,7846.182985,296.082377,-75996.673402
20702.854640,6661.853478,-296.082377,-75843.454302
20702.857189,5625.565159,-444.123565,-75230.577904
20702.859738,-3701.029710,2812.782580,-75230.577904
20702.862288,12583.501014,5625.565159,-75537.016103
20702.864837,8438.347739,3404.947333,-75077.358804
20702.867386,-16136.489536,10510.924376,-74004.825107
20702.869936,19837.519246,9030.512492,-77069.207099
20702.872485,-11547.212695,3997.112087,-75843.454302
20702.875034,1776.494261,5477.523971,-74464.482406
20702.877584,-1924.535449,10066.800811,-74770.920605
20702.880133,2812.782580,10214.842000,-76149.892501
20702.882682,888.247130,10214.842000,-74924.139704
20702.885232,-592.164754,9474.636058,-75077.358804
20702.887781,-5773.606348,13915.871710,-74004.825107
20702.890330,-7254.018232,13175.665768,-74158.044206
20702.892880,6809.894666,10066.800811,-74924.139704
20702.895429,-296.082377,7105.977043,-75230.577904
20702.897978,6365.771101,6513.812290,-74617.701505
20702.900528,-5773.606348,5625.565159,-75383.797003
20702.903077,6809.894666,7254.018232,-75230.577904
20702.905626,-17616.901420,8734.430116,-73698.386908
20702.908176,20873.807564,9918.759623,-75230.577904
20702.910725,-21169.889941,9918.759623,-73238.729609
20702.913274,17912.983796,5773.606348,-74924.139704
20702.915824,-20281.642811,9770.718434,-75077.358804
20702.918379,8142.265362,9030.512492,-75843.454302
20702.920934,-6217.729913,11991.336260,-73698.386908
20702.923489,4441.235652,10510.924376,-75077.358804
20702.926043,-2664.741391,11843.295072,-75077.358804
20702.928598,-7402.059420,15248.242405,-73851.606007
20702.931153,-1924.535449,15100.201217,-74924.139704
20702.933708,1776.494261,7105.977043,-75996.673402
20702.936263,-1776.494261,6661.853478,-74004.825107
20702.938818,5477.523971,6809.894666,-75843.454302
20702.941373,8586.388927,-1036.288319,-76456.330700
20702.943928,-1184.329507,-2664.741391,-74770.920605
20702.946483,-1628.453072,7846.182985,-75383.797003
20702.949038,8290.306550,10214.842000,-76456.330700
20702.951593,3997.112087,4145.153275,-75537.016103
20702.954148,8142.265362,2516.700203,-74311.263306
20702.956703,4145.153275,2812.782580,-74924.139704
20702.959258,2812.782580,1776.494261,-75537.016103
20702.961813,3701.029710,1924.535449,-75537.016103
20702.964368,7254.018232,888.247130,-75537.016103
20702.966923,6957.935855,2368.659014,-74924.139704
20702.969478,5625.565159,4441.235652,-74924.139704
20702.972033,740.205942,5773.606348,-75077.358804
20702.974588,2516.700203,6809.894666,-74924.139704
20702.977143,0.000000,5773.606348,-75077.358804
20702.979698,5773.606348,6365.771101,-74924.139704
20702.982253,4293.194464,5773.606348,-75996.673402
20702.984808,4737.318029,5033.400406,-76609.549800
20702.987363,6069.688724,3256.906145,-74617.701505
20702.989917,4589.276840,1628.453072,-75230.577904
20702.992472,4737.318029,-148.041188,-76915.987999
20702.995027,7254.018232,-592.164754,-76303.111601
20702.997582,6661.853478,-444.123565,-75230.577904
20703.000137,444.123565,1776.494261,-75230.577904
20703.002692,6069.688724,5181.441594,-75537.016103
20703.005247,14952.160028,2072.576638,-75843.454302
20703.007802,-11251.130318,5477.523971,-73851.606007
20703.010357,12287.418637,14656.077652,-75230.577904
20703.012912,2220.617826,8586.388927,-76303.111601
20703.015467,-6069.688724,2516.700203,-75383.797003
20703.018022,3701.029710,7698.141797,-74464.482406
20703.020582,-2960.823768,10807.006753,-75690.235202
20703.023141,2812.782580,10066.800811,-74770.920605
20703.025701,0.000000,8882.471304,-74770.920605
20703.028261,-4441.235652,13323.706956,-74770.920605
20703.030821,-2072.576638,11251.130318,-74924.139704
20703.033380,-7402.059420,12879.583391,-74770.920605
20703.035940,7105.977043,9030.512492,-75230.577904
20703.038500,-148.041188,6809.894666,-74770.920605
20703.041060,-148.041188,5033.400406,-74924.139704
20703.043619,-2664.741391,5625.565159,-76303.111601
20703.046179,-2516.700203,9326.594869,-75077.358804
20703.048739,-3997.112087,8438.347739,-74158.044206
20703.051299,3701.029710,6217.729913,-75690.235202
20703.053858,-1480.411884,7254.018232,-74464.482406
20703.056418,4145.153275,9474.636058,-74924.139704
20703.058978,-5625.565159,11399.171507,-75996.673402
20703.061538,-296.082377,9474.636058,-74924.139704
20703.064097,-2960.823768,10362.883188,-74464.482406
20703.066657,-1332.370696,12435.459826,-74158.044206
20703.069217,-5033.400406,15544.324782,-74924.139704
20703.071777,-4441.235652,17320.819043,-74004.825107
20703.074336,7105.977043,6661.853478,-75537.016103
20703.076896,-9030.512492,5181.441594,-75077.358804
20703.079456,9474.636058,6365.771101,-75690.235202
20703.082016,4885.359217,-2220.617826,-77375.645298
20703.084575,-740.205942,-1628.453072,-74617.701505
20703.087135,1480.411884,7846.182985,-74311.263306
20703.089695,9326.594869,9178.553681,-76762.768900
20703.092255,3256.906145,3849.070898,-75537.016103
20703.094814,6661.853478,3256.906145,-73851.606007
20703.097374,4293.194464,2664.741391,-75230.577904
20703.099934,2960.823768,1924.535449,-76609.549800
20703.102493,5477.523971,2516.700203,-75690.235202
20703.105053,4737.318029,0.000000,-75996.673402
20703.107613,9030.512492,2664.741391,-75077.358804
20703.110173,3256.906145,5033.400406,-75077.358804
20703.112732,1924.535449,5033.400406,-76149.892501
20703.115292,296.082377,6513.812290,-75230.577904
20703.117852,5329.482782,5329.482782,-75690.235202
20703.120412,2072.576638,4145.153275,-75537.016103
20703.122975,5033.400406,7846.182985,-74617.701505
20703.125539,3997.112087,4885.359217,-76609.549800
20703.128102,7105.977043,2516.700203,-75690.235202
20703.130666,6217.729913,888.247130,-74158.044206
20703.133229,5329.482782,-2220.617826,-77222.426198
20703.135793,6661.853478,-1776.494261,-76609.549800
20703.138356,1628.453072,1924.535449,-74004.825107
20703.140920,5477.523971,4293.194464,-75383.797003
20703.143483,6957.935855,5033.400406,-76609.549800
20703.146047,4293.194464,2072.576638,-74617.701505
20703.148611,-14508.036463,11399.171507,-73085.510509
20703.151174,17172.777854,8438.347739,-77682.083497
20703.153738,-10510.924376,2960.823768,-76762.768900
20703.156301,3552.988522,7105.977043,-74004.825107
20703.158865,-3256.906145,10807.006753,-74924.139704
20703.161428,3256.906145,9770.718434,-76609.549800
20703.163992,1628.453072,10066.800811,-74311.263306
20703.166555,-3404.947333,10362.883188,-74924.139704
20703.169119,-5773.606348,14063.912898,-74617.701505
20703.171682,-7402.059420,11991.336260,-74924.139704
20703.174246,6069.688724,10510.924376,-75077.358804
20703.176809,-1036.288319,6069.688724,-75690.235202
20703.179373,6957.935855,5329.482782,-74924.139704
20703.181936,-9178.553681,7254.018232,-74311.263306
20703.184500,9178.553681,3552.988522,-75690.235202
20703.187064,-7105.977043,13027.624579,-74004.825107
20703.189627,5773.606348,7105.977043,-74311.263306
20703.192191,1480.411884,6661.853478,-75077.358804
20703.194754,-296.082377,8882.471304,-75230.577904
20703.197318,7105.977043,10362.883188,-76915.987999
20703.199881,-11695.253884,11991.336260,-75077.358804
20703.202445,6365.771101,10214.842000,-74311.263306
20703.205008,-14063.912898,13323.706956,-73391.948708
20703.207572,4589.276840,14211.954086,-74770.920605
20703.210135,-8882.471304,17616.901420,-74004.825107
20703.212699,13027.624579,6365.771101,-76303.111601
20703.215262,-12731.542202,6513.812290,-75383.797003
20703.217826,11547.212695,4885.359217,-76609.549800
20703.220389,2072.576638,-2072.576638,-77528.864398
20703.222953,3108.864956,-2812.782580,-75383.797003
20703.225520,-592.164754,6809.894666,-74924.139704
20703.228087,7254.018232,9030.512492,-77222.426198
20703.230653,5329.482782,4885.359217,-74464.482406
20703.233220,5033.400406,2516.700203,-73698.386908
20703.235787,4737.318029,3256.906145,-75383.797003
20703.238354,148.041188,3552.988522,-75690.235202
20703.240921,9178.553681,1776.494261,-75690.235202
20703.243487,3404.947333,148.041188,-75843.454302
20703.246054,9474.636058,2072.576638,-75077.358804
20703.248621,2072.576638,6217.729913,-74617.701505
20703.251188,1036.288319,6661.853478,-75996.673402
20703.253754,592.164754,5625.565159,-75537.016103
20703.256321,8882.471304,3552.988522,-75383.797003
20703.258888,-2368.659014,8290.306550,-74158.044206
20703.261455,10510.924376,5033.400406,-75383.797003
20703.264022,-740.205942,5625.565159,-76303.111601
20703.266588,10214.842000,1628.453072,-75077.358804
20703.269155,4145.153275,-296.082377,-74770.920605
20703.271722,6365.771101,-2220.617826,-77222.426198
20703.274289,6809.894666,-1480.411884,-76915.987999
20703.276856,-5033.400406,5181.441594,-74311.263306
20703.279422,12879.583391,3997.112087,-76609.549800
20703.281989,6365.771101,1776.494261,-76609.549800
20703.284556,-5181.441594,4589.276840,-73391.948708
20703.287123,6217.729913,13619.789333,-73851.606007
20703.289690,4293.194464,8586.388927,-77222.426198
20703.292256,-6809.894666,5625.565159,-74464.482406
20703.294823,2072.576638,9770.718434,-73545.167808
20703.297390,-4737.318029,10510.924376,-75843.454302
20703.299957,5625.565159,9918.759623,-75077.358804
20703.302524,-2812.782580,9178.553681,-74311.263306
20703.305090,-2960.823768,13915.871710,-75077.358804
20703.307657,-6809.894666,12139.377449,-74924.139704
20703.310224,-296.082377,12879.583391,-74004.825107
20703.312791,888.247130,7994.224174,-74924.139704
20703.315358,5625.565159,6661.853478,-75230.577904
20703.317924,2664.741391,4885.359217,-75843.454302
20703.320491,-8438.347739,9474.636058,-75843.454302
20703.323058,1184.329507,6809.894666,-76303.111601
20703.325625,-740.205942,7254.018232,-74924.139704
20703.328189,296.082377,6217.729913,-73698.386908
20703.330758,3256.906145,8734.430116,-75077.358804
20703.333326,-3552.988522,11103.089130,-75383.797003
20703.335894,-1332.370696,10066.800811,-75996.673402
20703.338463,-2812.782580,11103.089130,-74464.482406
20703.341031,-2812.782580,12583.501014,-74158.044206
20703.343599,-6809.894666,15840.407159,-74924.139704
20703.346168,4441.235652,15544.324782,-74004.825107
20703.348736,1480.411884,8142.265362,-74311.263306
20703.351304,-1480.411884,6513.812290,-75383.797003
20703.353873,2960.823768,6365.771101,-75537.016103
20703.356441,8734.430116,-3108.864956,-76915.987999
20703.359009,-2516.700203,-1036.288319,-74004.825107
20703.361577,4589.276840,6957.935855,-75383.797003
20703.364146,10955.047942,8290.306550,-76915.987999
20703.366714,296.082377,4293.194464,-74004.825107
20703.369282,10510.924376,2812.782580,-74311.263306
20703.371851,1480.411884,3701.029710,-75690.235202
20703.374419,2812.782580,4589.276840,-75690.235202
20703.376987,7846.182985,2664.741391,-75230.577904
20703.379556,5329.482782,888.247130,-76149.892501
20703.382124,7402.059420,1184.329507,-74311.263306
20703.384692,5921.647536,5625.565159,-73698.386908
20703.387261,-592.164754,7846.182985,-75996.673402
20703.389829,5329.482782,4441.235652,-75843.454302
20703.392397,5033.400406,6957.935855,-74158.044206
20703.394966,6809.894666,5181.441594,-75537.016103
20703.397534,4293.194464,6365.771101,-77988.521696
20703.400102,5773.606348,3849.070898,-76456.330700
20703.402671,7105.977043,444.123565,-74924.139704
20703.405239,4293.194464,-2220.617826,-75690.235202
20703.407807,12139.377449,-3849.070898,-76149.892501
20703.410376,-7402.059420,2368.659014,-74924.139704
20703.412944,15692.365970,5329.482782,-75690.235202
20703.415512,5329.482782,4441.235652,-75996.673402
20703.418080,2664.741391,1332.370696,-75843.454302
20703.420649,-9178.553681,11991.336260,-73238.729609
20703.423217,12583.501014,9030.512492,-75537.016103
20703.425785,-7105.977043,3849.070898,-76609.549800
20703.428354,2960.823768,9178.553681,-74004.825107
20703.430923,-4589.276840,11547.212695,-74004.825107
20703.433491,740.205942,9474.636058,-75537.016103
20703.436060,1628.453072,9178.553681,-74924.139704
20703.438629,-5625.565159,11399.171507,-73698.386908
20703.441198,-2812.782580,13175.665768,-75230.577904
20703.443767,-9178.553681,12287.418637,-75383.797003
20703.446336,8586.388927,9918.759623,-74158.044206
20703.448904,-4589.276840,7254.018232,-74464.482406
20703.451473,10807.006753,6365.771101,-74770.920605
20703.454042,-9030.512492,8734.430116,-74770.920605
20703.456611,3997.112087,6661.853478,-75537.016103
20703.459180,-6217.729913,9770.718434,-74311.263306
20703.461749,3701.029710,4885.359217,-74464.482406
20703.464318,-1184.329507,6069.688724,-75230.577904
20703.466886,740.205942,10658.965565,-75843.454302
20703.469455,-2516.700203,11251.130318,-75537.016103
20703.472024,-3256.906145,10807.006753,-74311.263306
20703.474593,-7402.059420,13027.624579,-74311.263306
20703.477162,-3552.988522,16432.571912,-75077.358804
20703.479731,-1924.535449,16432.571912,-74311.263306
20703.482299,7550.100608,9178.553681,-74464.482406
20703.484868,-5625.565159,7254.018232,-75690.235202
20703.487437,4441.235652,5329.482782,-76762.768900
20703.490006,8438.347739,-2960.823768,-76915.987999
20703.492575,-10214.842000,296.082377,-74004.825107
20703.495144,14211.954086,7846.182985,-76456.330700
20703.497712,6069.688724,7105.977043,-76149.892501
20703.500281,4589.276840,4145.153275,-74004.825107
20703.502850,6661.853478,2220.617826,-74924.139704
20703.505419,2516.700203,3849.070898,-75383.797003
20703.507988,1036.288319,3552.988522,-75230.577904
20703.510557,5625.565159,2368.659014,-76149.892501
20703.513126,7402.059420,888.247130,-75537.016103
20703.515694,8142.265362,2072.576638,-74924.139704
20703.518263,1036.288319,4145.153275,-75230.577904
20703.520832,0.000000,7402.059420,-75843.454302
20703.523401,3997.112087,6661.853478,-75843.454302
20703.525970,592.164754,2664.741391,-75077.358804
20703.528539,6069.688724,5921.647536,-73391.948708
20703.531107,9030.512492,5033.400406,-75383.797003
20703.533677,6365.771101,3404.947333,-77222.426198
20703.536247,7846.182985,-444.123565,-74617.701505
20703.538816,2368.659014,-2812.782580,-75383.797003
20703.541386,3849.070898,-3108.864956,-77375.645298
20703.543956,2960.823768,3849.070898,-75996.673402
20703.546525,7254.018232,6809.894666,-75383.797003
20703.549095,15248.242405,3108.864956,-76609.549800
20703.551665,-9474.636058,3404.947333,-74617.701505
20703.554234,16876.695478,10955.047942,-74158.044206
20703.556804,-11547.212695,7254.018232,-74464.482406
20703.559374,-3404.947333,6957.935855,-75383.797003
20703.561943,296.082377,11399.171507,-73851.606007
20703.564513,-1776.494261,12435.459826,-75383.797003
20703.567083,3849.070898,9474.636058,-75537.016103
20703.569652,-3997.112087,6365.771101,-75230.577904
20703.572222,-2960.823768,11547.212695,-74004.825107
20703.574792,-6661.853478,11991.336260,-75230.577904
20703.577361,1776.494261,12139.377449,-74924.139704
20703.579931,-1628.453072,8290.306550,-74311.263306
20703.582500,5921.647536,5625.565159,-74311.263306
20703.585070,592.164754,5181.441594,-74924.139704
20703.587640,-3701.029710,8734.430116,-75077.358804
20703.590209,-3997.112087,10807.006753,-74311.263306
20703.592779,-740.205942,4145.153275,-75230.577904
20703.595349,296.082377,4737.318029,-75537.016103
20703.597918,592.164754,9178.553681,-75230.577904
20703.600488,-2220.617826,11251.130318,-75843.454302
20703.603058,-3701.029710,10807.006753,-75690.235202
20703.605627,-5625.565159,14211.954086,-73698.386908
20703.608197,-5477.523971,15692.365970,-74158.044206
20703.610767,-3108.864956,17024.736666,-74464.482406
20703.613336,8734.430116,10362.883188,-73698.386908
20703.615906,-3108.864956,7846.182985,-74311.263306
20703.618476,3997.112087,4885.359217,-78141.740796
20703.621045,7254.018232,-5329.482782,-77375.645298
20703.623615,-6809.894666,-1480.411884,-74004.825107
20703.626185,9622.677246,6513.812290,-76609.549800
20703.628754,9030.512492,8438.347739,-77528.864398
20703.631324,7254.018232,6513.812290,-74311.263306
20703.633893,5477.523971,2812.782580,-74617.701505
20703.636463,-296.082377,3256.906145,-75843.454302
20703.639033,2812.782580,3256.906145,-75383.797003
20703.641602,4145.153275,3552.988522,-75690.235202
20703.644172,8882.471304,1184.329507,-76762.768900
20703.646741,6513.812290,1184.329507,-75996.673402
20703.649311,4293.194464,4145.153275,-73698.386908
20703.651880,2960.823768,5625.565159,-75077.358804
20703.654450,444.123565,7846.182985,-76303.111601
20703.657019,1184.329507,4589.276840,-74617.701505
20703.659589,14952.160028,4885.359217,-74464.482406
20703.662158,1184.329507,5477.523971,-75843.454302
20703.664728,15396.283594,1628.453072,-76456.330700
20703.667297,-1924.535449,1036.288319,-74770.920605
20703.669867,9030.512492,-3108.864956,-75077.358804
20703.672437,-6957.935855,-592.164754,-75996.673402
20703.675006,12731.542202,3108.864956,-76915.987999
20703.677576,4589.276840,7254.018232,-74311.263306
20703.680145,8882.471304,296.082377,-75690.235202
20703.682715,-15692.365970,9178.553681,-74158.044206
20703.685284,14211.954086,7698.141797,-76149.892501
20703.687854,-10362.883188,4589.276840,-74617.701505
20703.690423,148.041188,7994.224174,-75230.577904
20703.692993,1332.370696,12435.459826,-74770.920605
20703.695562,-1480.411884,11547.212695,-75077.358804
20703.698132,5329.482782,9622.677246,-74770.920605
20703.700701,-8882.471304,10214.842000,-75077.358804
20703.703271,-4589.276840,13027.624579,-74617.701505
20703.705840,-5773.606348,12583.501014,-75077.358804
20703.708410,4293.194464,11547.212695,-75230.577904
20703.710980,-3849.070898,7105.977043,-74770.920605
20703.713549,6957.935855,6661.853478,-74770.920605
20703.716119,-2368.659014,5625.565159,-74311.263306
20703.718688,-2220.617826,8586.388927,-75230.577904
20703.721258,-7698.141797,8290.306550,-75537.016103
20703.723827,5921.647536,6069.688724,-74617.701505
20703.726397,-3256.906145,7105.977043,-74924.139704
20703.728966,2812.782580,10362.883188,-75537.016103
20703.731536,-7105.977043,12731.542202,-75690.235202
20703.734105,-4885.359217,14063.912898,-74158.044206
20703.736675,-6957.935855,16136.489536,-74311.263306
20703.739245,-2368.659014,16284.530724,-75077.358804
20703.741816,4589.276840,10658.965565,-74311.263306
20703.744386,-740.205942,7402.059420,-74004.825107
20703.746957,2220.617826,7698.141797,-75843.454302
20703.749527,10658.965565,-2960.823768,-77222.426198
20703.752097,-10955.047942,-2072.576638,-73851.606007
20703.754668,11547.212695,5329.482782,-75383.797003
20703.757238,5033.400406,8882.471304,-77222.426198
20703.759809,10066.800811,4293.194464,-75537.016103
20703.762379,1924.535449,3997.112087,-73391.948708
20703.764950,6809.894666,2368.659014,-76303.111601
20703.767520,592.164754,1184.329507,-76456.330700
20703.770090,2664.741391,2812.782580,-75537.016103
20703.772661,9030.512492,1480.411884,-75996.673402
20703.775231,9918.759623,1184.329507,-76149.892501
20703.777802,0.000000,3997.112087,-74464.482406
20703.780372,4293.194464,5477.523971,-75537.016103
20703.782943,2072.576638,7105.977043,-76456.330700
20703.785513,-2960.823768,5625.565159,-74617.701505
20703.788083,14952.160028,3849.070898,-74311.263306
20703.790654,888.247130,4589.276840,-75537.016103
20703.793224,15988.448347,296.082377,-76915.987999
20703.795795,-1924.535449,1628.453072,-75230.577904
20703.798365,10066.800811,-4885.359217,-76609.549800
20703.800935,-7994.224174,2812.782580,-75077.358804
20703.803506,13619.789333,3256.906145,-76762.768900
20703.806076,8290.306550,5329.482782,-75996.673402
20703.808647,8586.388927,1628.453072,-75383.797003
20703.811217,-14656.077652,9622.677246,-75077.358804
20703.813788,15544.324782,4885.359217,-77069.207099
20703.816358,-7698.141797,3849.070898,-75383.797003
20703.818928,4589.276840,9474.636058,-74924.139704
20703.821499,-5625.565159,13471.748144,-75843.454302
20703.824069,2812.782580,11103.089130,-75690.235202
20703.826640,740.205942,8586.388927,-74311.263306
20703.829210,-5773.606348,9770.718434,-74464.482406
20703.831781,-6217.729913,11991.336260,-73851.606007
20703.834351,-5773.606348,12731.542202,-74617.701505
20703.836921,2368.659014,10362.883188,-75996.673402
20703.839492,1776.494261,7254.018232,-73851.606007
20703.842062,8290.306550,6513.812290,-74311.263306
20703.844631,-10362.883188,8586.388927,-73851.606007
20703.847201,9622.677246,7105.977043,-75690.235202
20703.849771,-17468.860231,10362.883188,-74311.263306
20703.852341,11399.171507,5181.441594,-75230.577904
20703.854910,-12139.377449,9178.553681,-74158.044206
20703.857480,3108.864956,10362.883188,-75077.358804
20703.860050,-2220.617826,12583.501014,-75230.577904
20703.862620,-9622.677246,15988.448347,-73085.510509
20703.865190,-3849.070898,18357.107362,-74004.825107
20703.867759,1628.453072,12583.501014,-75077.358804
20703.870329,3849.070898,8290.306550,-74004.825107
20703.872899,-1628.453072,9326.594869,-74158.044206
20703.875469,6661.853478,5181.441594,-76456.330700
20703.878038,-740.205942,-5329.482782,-75843.454302
20703.880608,-4737.318029,2368.659014,-73391.948708
20703.883178,11547.212695,7550.100608,-76456.330700
20703.885748,10658.965565,3404.947333,-77682.083497
20703.888317,3701.029710,5033.400406,-74158.044206
20703.890887,5625.565159,2368.659014,-74617.701505
20703.893457,3552.988522,2960.823768,-76149.892501
20703.896027,1776.494261,3404.947333,-75537.016103
20703.898597,10066.800811,2960.823768,-75996.673402
20703.901166,2812.782580,2516.700203,-75230.577904
20703.903736,13175.665768,2960.823768,-74464.482406
20703.906306,1776.494261,5033.400406,-74770.920605
20703.908876,1036.288319,7105.977043,-75843.454302
20703.911445,444.123565,6069.688724,-75690.235202
20703.914015,8290.306550,3108.864956,-75996.673402
20703.916585,7402.059420,4737.318029,-75690.235202
20703.919155,11695.253884,1184.329507,-76456.330700
20703.921724,2812.782580,0.000000,-75690.235202
20703.924294,7846.182985,-3701.029710,-74770.920605
20703.926864,-7254.018232,1332.370696,-74158.044206
20703.929434,10658.965565,1628.453072,-76762.768900
20703.932004,10807.006753,4737.318029,-75843.454302
20703.934573,6217.729913,2812.782580,-74617.701505
20703.937143,-12139.377449,8734.430116,-75537.016103
20703.939713,7105.977043,5921.647536,-75996.673402
20703.942283,-10807.006753,4145.153275,-74311.263306
20703.944852,7254.018232,10510.924376,-75077.358804
20703.947422,-9918.759623,14211.954086,-75230.577904
20703.949991,5773.606348,13471.748144,-75383.797003
20703.952560,-444.123565,8438.347739,-74924.139704
20703.955130,-5033.400406,9326.594869,-74004.825107
20703.957699,-7254.018232,12287.418637,-73851.606007
20703.960269,-5625.565159,12287.418637,-75077.358804
20703.962838,4293.194464,10362.883188,-75383.797003
20703.965408,740.205942,6217.729913,-74617.701505
20703.967977,5033.400406,5329.482782,-74617.701505
20703.970547,-10658.965565,7994.224174,-73698.386908
20703.973116,3404.947333,5773.606348,-75996.673402
20703.975686,-8438.347739,9178.553681,-74311.263306
20703.978255,1480.411884,7846.182985,-73545.167808
20703.980825,0.000000,8882.471304,-74770.920605
20703.983394,-6957.935855,11547.212695,-75230.577904
20703.985964,1184.329507,13027.624579,-74617.701505
20703.988533,-15988.448347,18061.024985,-73391.948708
20703.991103,2220.617826,16580.613101,-74311.263306
20703.993672,-2220.617826,11399.171507,-74924.139704
20703.996242,6365.771101,6809.894666,-73698.386908
20703.998811,-2516.700203,8882.471304,-75077.358804
20704.001381,14656.077652,592.164754,-77682.083497
20704.003950,-9918.759623,-4145.153275,-74924.139704
20704.006519,6809.894666,4589.276840,-74924.139704
20704.009089,8142.265362,7550.100608,-76609.549800
20704.011658,7994.224174,3404.947333,-75996.673402
20704.014228,5033.400406,5033.400406,-73391.948708
20704.016797,9178.553681,1332.370696,-76303.111601
20704.019367,0.000000,2664.741391,-75690.235202
20704.021936,2072.576638,2516.700203,-76303.111601
20704.024506,10510.924376,1628.453072,-76149.892501
20704.027075,5329.482782,3701.029710,-74464.482406
20704.029645,12287.418637,3256.906145,-74770.920605
20704.032214,-5033.400406,7698.141797,-74311.263306
20704.034784,7846.182985,4145.153275,-76149.892501
20704.037353,-2368.659014,6661.853478,-74924.139704
20704.039923,12139.377449,3404.947333,-75077.358804
20704.042492,2960.823768,3256.906145,-75843.454302
20704.045062,11843.295072,-592.164754,-76762.768900
20704.047631,6513.812290,-1184.329507,-74617.701505
20704.050200,-4589.276840,-296.082377,-74004.825107
20704.052769,8882.471304,2220.617826,-76303.111601
20704.055339,7994.224174,4293.194464,-76456.330700
20704.057908,9918.759623,2664.741391,-74770.920605
20704.060477,-13619.789333,8734.430116,-73545.167808
20704.063046,15840.407159,8882.471304,-76915.987999
20704.065616,-13027.624579,3256.906145,-74770.920605
20704.068185,3404.947333,10510.924376,-73238.729609
20704.070754,-4885.359217,13471.748144,-75230.577904
20704.073323,3552.988522,14952.160028,-75537.016103
20704.075893,4293.194464,9770.718434,-74770.920605
20704.078462,-7254.018232,8586.388927,-74158.044206
20704.081031,-3849.070898,10214.842000,-75077.358804
20704.083600,-7254.018232,11399.171507,-74464.482406
20704.086170,296.082377,10807.006753,-75843.454302
20704.088739,3849.070898,7402.059420,-75690.235202
20704.091308,6957.935855,5921.647536,-73851.606007
20704.093877,-11103.089130,8438.347739,-73085.510509
20704.096447,7105.977043,5625.565159,-75690.235202
20704.099016,-15396.283594,9918.759623,-73698.386908
20704.101585,5625.565159,7254.018232,-73391.948708
20704.104154,-4885.359217,9030.512492,-74464.482406
20704.106724,-4589.276840,10955.047942,-75690.235202
20704.109293,2220.617826,14359.995275,-74924.139704
20704.111862,-15692.365970,18505.148550,-74464.482406
20704.114431,4441.235652,14804.118840,-74311.263306
20704.117001,-5921.647536,10658.965565,-74464.482406
20704.119570,7402.059420,7846.182985,-74004.825107
20704.122139,-3108.864956,9918.759623,-75230.577904
20704.124708,16728.654289,-296.082377,-76762.768900
20704.127278,-7254.018232,-4589.276840,-74770.920605
20704.129847,10807.006753,5181.441594,-74924.139704
20704.132416,9770.718434,6809.894666,-77069.207099
20704.134985,2664.741391,3108.864956,-75996.673402
20704.137555,10214.842000,3552.988522,-74617.701505
20704.140124,4589.276840,2368.659014,-75690.235202
20704.142693,3849.070898,2516.700203,-76149.892501
20704.145262,-2516.700203,3404.947333,-75996.673402
20704.147832,13323.706956,1776.494261,-76149.892501
20704.150400,-444.123565,1776.494261,-75996.673402
20704.152968,10658.965565,1480.411884,-75996.673402
20704.155537,-4145.153275,9770.718434,-74311.263306
20704.158105,7846.182985,5477.523971,-75996.673402
20704.160674,10066.800811,3849.070898,-74924.139704
20704.163242,7254.018232,3849.070898,-75537.016103
20704.165810,7846.182985,2516.700203,-75843.454302
20704.168379,8438.347739,-1776.494261,-77222.426198
20704.170947,3997.112087,-2220.617826,-75537.016103
20704.173516,-4293.194464,296.082377,-74924.139704
20704.176084,9918.759623,2812.782580,-75996.673402
20704.178652,11251.130318,1776.494261,-76915.987999
20704.181221,-4589.276840,7550.100608,-73698.386908
20704.183789,9622.677246,11843.295072,-74924.139704
20704.186358,-1184.329507,5921.647536,-76303.111601
20704.188926,-12731.542202,5033.400406,-74004.825107
20704.191494,3849.070898,11843.295072,-73391.948708
20704.194063,-8290.306550,13175.665768,-75690.235202
20704.196631,9030.512492,11251.130318,-75537.016103
20704.199199,-5181.441594,9030.512492,-74004.825107
20704.201768,1480.411884,9474.636058,-74617.701505
20704.204336,-11399.171507,13027.624579,-74158.044206
20704.206905,-740.205942,11991.336260,-74924.139704
20704.209473,444.123565,10362.883188,-75230.577904
20704.212041,5181.441594,6365.771101,-75690.235202
20704.214610,-148.041188,5181.441594,-74924.139704
20704.217178,3701.029710,7994.224174,-76149.892501
20704.219747,-10362.883188,7994.224174,-75996.673402
20704.222315,3256.906145,5921.647536,-74924.139704
20704.224883,-6069.688724,8142.265362,-74464.482406
20704.227452,3849.070898,9178.553681,-75383.797003
20704.230020,-4293.194464,14211.954086,-75537.016103
20704.232588,-6365.771101,16728.654289,-74617.701505
20704.235157,-3256.906145,18505.148550,-74004.825107
20704.237725,-444.123565,10214.842000,-75230.577904
20704.240294,1924.535449,7846.182985,-75230.577904
20704.242862,-4293.194464,9474.636058,-74770.920605
20704.245430,18801.230927,-1332.370696,-77528.864398
20704.247999,-10362.883188,-4441.235652,-75843.454302
20704.250567,6069.688724,3256.906145,-75230.577904
20704.253135,7698.141797,7550.100608,-76456.330700
20704.255703,8586.388927,1776.494261,-75537.016103
20704.258271,5921.647536,3997.112087,-74311.263306
20704.260839,9030.512492,2220.617826,-75383.797003
20704.263407,3849.070898,2960.823768,-75843.454302
20704.265974,-444.123565,2516.700203,-75537.016103
20704.268542,11547.212695,2368.659014,-75996.673402
20704.271110,3256.906145,1628.453072,-75537.016103
20704.273678,6513.812290,2072.576638,-75843.454302
20704.276246,-740.205942,8586.388927,-75843.454302
20704.278814,4737.318029,5181.441594,-76456.330700
20704.281382,444.123565,3997.112087,-75383.797003
20704.283950,8734.430116,2072.576638,-75843.454302
20704.286518,5773.606348,2368.659014,-76303.111601
20704.289085,11843.295072,-1332.370696,-77222.426198
20704.291653,-444.123565,-444.123565,-75230.577904
20704.294221,2072.576638,-444.123565,-75230.577904
20704.296789,9030.512492,2812.782580,-75537.016103
20704.299357,12731.542202,444.123565,-77069.207099
20704.301925,-8586.388927,8142.265362,-73238.729609
20704.304493,13323.706956,11843.295072,-76149.892501
20704.307061,-7698.141797,4885.359217,-76303.111601
20704.309628,-5773.606348,6513.812290,-73851.606007
20704.312196,-1036.288319,12731.542202,-73698.386908
20704.314764,-1480.411884,13619.789333,-75843.454302
20704.317332,5773.606348,10214.842000,-76303.111601
20704.319900,-1184.329507,8438.347739,-74617.701505
20704.322468,-4145.153275,8734.430116,-74617.701505
20704.325036,-5625.565159,12435.459826,-74924.139704
20704.327604,-7402.059420,12583.501014,-74464.482406
20704.330171,6069.688724,9326.594869,-74924.139704
20704.332739,2072.576638,6809.894666,-74770.920605
20704.335307,1480.411884,6365.771101,-74158.044206
20704.337875,148.041188,8586.388927,-74464.482406
20704.340443,-6661.853478,9622.677246,-76609.549800
20704.343011,-740.205942,6957.935855,-75690.235202
20704.345579,-1332.370696,8586.388927,-74464.482406
20704.348147,-2960.823768,11251.130318,-74924.139704
20704.350714,-1184.329507,15396.283594,-75077.358804
20704.353282,-10362.883188,19837.519246,-74004.825107
20704.355854,6661.853478,15840.407159,-74158.044206
20704.358421,-7402.059420,10214.842000,-74311.263306
20704.360989,5329.482782,9030.512492,-74311.263306
20704.363556,-3701.029710,8586.388927,-75383.797003
20704.366124,19393.395680,-3701.029710,-77375.645298
20704.368691,-15988.448347,148.041188,-74770.920605
20704.371259,17172.777854,4589.276840,-76456.330700
20704.373827,6513.812290,2960.823768,-76456.330700
20704.376394,-592.164754,4293.194464,-73085.510509
20704.378962,11843.295072,3849.070898,-74770.920605
20704.381529,-1480.411884,6513.812290,-75383.797003
20704.384097,7846.182985,3552.988522,-76303.111601
20704.386664,-1776.494261,3256.906145,-75383.797003
20704.389232,8882.471304,296.082377,-75690.235202
20704.391799,10510.924376,1628.453072,-74464.482406
20704.394367,-444.123565,7254.018232,-74311.263306
20704.396935,10807.006753,7105.977043,-75843.454302
20704.399502,-4885.359217,5477.523971,-75690.235202
20704.402070,13619.789333,1776.494261,-75383.797003
20704.404637,-888.247130,2960.823768,-75077.358804
20704.407205,16136.489536,-444.123565,-77682.083497
20704.409772,-740.205942,-296.082377,-75230.577904
20704.412340,4145.153275,-444.123565,-75077.358804
20704.414908,5329.482782,2812.782580,-74924.139704
20704.417475,14211.954086,-1480.411884,-77222.426198
20704.420043,-7994.224174,6217.729913,-74004.825107
20704.422610,10510.924376,13767.830521,-74004.825107
20704.425178,3256.906145,9030.512492,-76609.549800
20704.427745,-8734.430116,3256.906145,-75843.454302
20704.430313,1924.535449,10658.965565,-72779.072310
20704.432881,-10214.842000,13767.830521,-75230.577904
20704.435448,9918.759623,10658.965565,-75230.577904
20704.437977,-5181.441594,9474.636058,-74770.920605
20704.440506,3108.864956,10362.883188,-74311.263306
20704.443035,-11695.253884,12287.418637,-74924.139704
20704.445564,-2368.659014,10362.883188,-75230.577904
20704.448093,-296.082377,11399.171507,-74464.482406
20704.450622,6661.853478,5477.523971,-75383.797003
20704.453151,3849.070898,6957.935855,-74924.139704
20704.455680,-4293.194464,9474.636058,-74924.139704
20704.458209,-1628.453072,6809.894666,-76609.549800
20704.460738,-4145.153275,6957.935855,-75843.454302
20704.463267,-1924.535449,9622.677246,-74004.825107
20704.465796,1628.453072,11103.089130,-74924.139704
20704.468325,-4885.359217,14211.954086,-75537.016103
20704.470854,-5477.523971,19985.560434,-74464.482406
20704.473383,296.082377,15692.365970,-74004.825107
20704.475912,-3256.906145,10066.800811,-74311.263306
20704.478441,592.164754,9474.636058,-74464.482406
20704.480970,2960.823768,8142.265362,-75690.235202
20704.483498,16136.489536,-5033.400406,-76762.768900
20704.486027,-14952.160028,-592.164754,-74158.044206
20704.488556,16284.530724,5033.400406,-76303.111601
20704.491085,7254.018232,4145.153275,-76149.892501
20704.493614,-2664.741391,3849.070898,-73545.167808
20704.496143,13323.706956,3701.029710,-74311.263306
20704.498672,-1924.535449,6069.688724,-74770.920605
20704.501201,9474.636058,3552.988522,-75077.358804
20704.503730,-1776.494261,3552.988522,-75230.577904
20704.506259,9918.759623,592.164754,-76149.892501
20704.508788,3849.070898,0.000000,-74924.139704
20704.511317,11991.336260,3701.029710,-75537.016103
20704.513846,-2220.617826,8586.388927,-76456.330700
20704.516375,5625.565159,3849.070898,-75383.797003
20704.518904,5181.441594,1480.411884,-74617.701505
20704.521433,12139.377449,740.205942,-74924.139704
20704.523962,6661.853478,-888.247130,-75996.673402
20704.526491,1332.370696,-1628.453072,-75690.235202
20704.529020,6069.688724,1332.370696,-74464.482406
20704.531549,7846.182985,2072.576638,-75077.358804
20704.534078,4145.153275,-1480.411884,-76303.111601
20704.536607,-12287.418637,11547.212695,-73545.167808
20704.539144,15692.365970,10362.883188,-75690.235202
20704.541680,-9030.512492,5181.441594,-76456.330700
20704.544217,296.082377,7550.100608,-74311.263306
20704.546754,-5477.523971,12731.542202,-73545.167808
20704.549291,740.205942,13471.748144,-75230.577904
20704.551828,5921.647536,9622.677246,-75383.797003
20704.554364,-2516.700203,9770.718434,-74158.044206
20704.556901,-6513.812290,11103.089130,-74158.044206
20704.559438,-2960.823768,11843.295072,-75383.797003
20704.561975,-5181.441594,11991.336260,-75383.797003
20704.564512,5329.482782,7550.100608,-74770.920605
20704.567049,-2368.659014,6809.894666,-74464.482406
20704.569585,-2664.741391,7254.018232,-75383.797003
20704.572122,3108.864956,8290.306550,-75996.673402
20704.574659,-9770.718434,9770.718434,-75230.577904
20704.577196,2960.823768,7994.224174,-73391.948708
20704.579733,-6513.812290,10362.883188,-73391.948708
20704.582269,3108.864956,11547.212695,-75537.016103
20704.584806,-12139.377449,20429.683999,-75077.358804
20704.587343,1776.494261,15840.407159,-74464.482406
20704.589880,-2072.576638,11103.089130,-73698.386908
20704.592417,-2220.617826,7994.224174,-74770.920605
20704.594953,1184.329507,7994.224174,-75230.577904
20704.597490,14804.118840,-2664.741391,-75843.454302
20704.600027,-5773.606348,-1480.411884,-74770.920605
20704.602564,7550.100608,4145.153275,-76456.330700
20704.605101,15396.283594,4589.276840,-76762.768900
20704.607637,-6513.812290,3849.070898,-73851.606007
20704.610174,16136.489536,2072.576638,-75077.358804
20704.612711,-5181.441594,6513.812290,-74617.701505
20704.615248,12435.459826,2516.700203,-75843.454302
20704.617785,-4589.276840,3552.988522,-76149.892501
20704.620322,15988.448347,740.205942,-76915.987999
20704.622858,-6661.853478,2960.823768,-74617.701505
20704.625395,19837.519246,1924.535449,-76456.330700
20704.627932,-7254.018232,8438.347739,-75383.797003
20704.630469,13767.830521,3849.070898,-75996.673402
20704.633006,-2368.659014,2812.782580,-74004.825107
20704.635542,17024.736666,148.041188,-74924.139704
20704.638079,1036.288319,-296.082377,-75537.016103
20704.640623,2812.782580,-444.123565,-75843.454302
20704.643166,7254.018232,2220.617826,-74770.920605
20704.645710,9622.677246,888.247130,-76149.892501
20704.648253,-1036.288319,-444.123565,-74924.139704
20704.650797,-7254.018232,10807.006753,-74617.701505
20704.653340,14063.912898,10658.965565,-75537.016103
20704.655884,-7254.018232,5329.482782,-76149.892501
20704.658427,3256.906145,9178.553681,-73851.606007
20704.660971,-7254.018232,12139.377449,-74158.044206
20704.663514,444.123565,14063.912898,-75077.358804
20704.666058,1776.494261,9770.718434,-75690.235202
20704.668601,2960.823768,9918.759623,-74464.482406
20704.671145,-10066.800811,11843.295072,-74158.044206
20704.673688,-888.247130,10658.965565,-74924.139704
20704.676231,-8586.388927,9918.759623,-74924.139704
20704.678775,5329.482782,8734.430116,-73545.167808
20704.681318,3256.906145,6661.853478,-74464.482406
20704.683862,-3552.988522,6217.729913,-74770.920605
20704.686405,4737.318029,9622.677246,-74004.825107
20704.688949,-9326.594869,9030.512492,-76149.892501
20704.691492,-1332.370696,8290.306550,-74464.482406
20704.694036,-4441.235652,11547.212695,-74004.825107
20704.696579,-2368.659014,15100.201217,-74924.139704
20704.699123,-2812.782580,21021.848753,-74617.701505
20704.701666,2664.741391,14952.160028,-74924.139704
20704.704210,-2812.782580,10658.965565,-73851.606007
20704.706753,-2812.782580,7550.100608,-75230.577904
20704.709297,1924.535449,2368.659014,-77222.426198
20704.711840,5921.647536,-3849.070898,-75383.797003
20704.714384,-12139.377449,1480.411884,-74617.701505
20704.716927,18061.024985,4293.194464,-77528.864398
20704.719471,2220.617826,592.164754,-75383.797003
20704.722014,-2664.741391,3108.864956,-73851.606007
20704.724558,10362.883188,2812.782580,-74924.139704
20704.727101,740.205942,5329.482782,-75690.235202
20704.729645,9770.718434,3849.070898,-75690.235202
20704.732188,3404.947333,2516.700203,-76456.330700
20704.734732,4293.194464,888.247130,-75996.673402
20704.737275,10510.924376,3849.070898,-74464.482406
20704.739819,3256.906145,5477.523971,-75383.797003
20704.742367,5033.400406,6957.935855,-75843.454302
20704.744915,4293.194464,3849.070898,-75537.016103
20704.747464,7254.018232,1332.370696,-75077.358804
20704.750012,10362.883188,-1924.535449,-76303.111601
20704.752561,-1628.453072,444.123565,-75996.673402
20704.755109,9622.677246,-1184.329507,-76303.111601
20704.757658,5477.523971,2220.617826,-74770.920605
20704.760206,16728.654289,-2516.700203,-75996.673402
20704.762754,-14804.118840,5773.606348,-73851.606007
20704.765303,15988.448347,13027.624579,-74617.701505
20704.767851,-8586.388927,10510.924376,-74158.044206
20704.770400,-4885.359217,7550.100608,-75077.358804
20704.772948,-5773.606348,12139.377449,-73698.386908
20704.775496,1036.288319,12583.501014,-75077.358804
20704.778045,4885.359217,9474.636058,-75077.358804
20704.780593,-3701.029710,8586.388927,-75690.235202
20704.783142,888.247130,9326.594869,-74770.920605
20704.785690,-9622.677246,12731.542202,-73698.386908
20704.788239,888.247130,10066.800811,-75230.577904
20704.790787,-4293.194464,9622.677246,-75843.454302
20704.793335,5773.606348,5033.400406,-74004.825107
20704.795884,6513.812290,7698.141797,-74158.044206
20704.798432,-8290.306550,11843.295072,-75383.797003
20704.800981,296.082377,5921.647536,-76762.768900
20704.803529,-10658.965565,9178.553681,-75996.673402
20704.806078,2516.700203,9178.553681,-74464.482406
20704.808626,-8586.388927,15396.283594,-74311.263306
20704.811174,1332.370696,19837.519246,-75383.797003
20704.813723,3108.864956,14804.118840,-74004.825107
20704.816271,-3701.029710,10510.924376,-73238.729609
20704.818820,-2368.659014,8290.306550,-74770.920605
20704.821368,0.000000,6069.688724,-76303.111601
20704.823916,16580.613101,-3849.070898,-76762.768900
20704.826465,-11547.212695,2220.617826,-73545.167808
20704.829013,19245.354492,5477.523971,-76915.987999
20704.831562,8586.388927,2072.576638,-75843.454302
20704.834110,-1924.535449,3701.029710,-72932.291410
20704.836659,10362.883188,1480.411884,-75537.016103
20704.839207,-2368.659014,6661.853478,-75537.016103
20704.841755,12287.418637,3108.864956,-76303.111601
20704.844308,-5477.523971,2516.700203,-75383.797003
20704.846861,17172.777854,148.041188,-76149.892501
20704.849414,1332.370696,1628.453072,-74311.263306
20704.851967,8882.471304,7254.018232,-74770.920605
20704.854519,-296.082377,5625.565159,-76456.330700
20704.857072,7994.224174,3552.988522,-75843.454302
20704.859625,6661.853478,1332.370696,-74924.139704
20704.862178,8882.471304,-1332.370696,-76915.987999
20704.864731,-1332.370696,-148.041188,-75690.235202
20704.867283,7402.059420,-592.164754,-76762.768900
20704.869836,9178.553681,2960.823768,-74617.701505
20704.872389,13027.624579,-3552.988522,-76762.768900
20704.874942,-16876.695478,8142.265362,-75077.358804
20704.877494,10807.006753,9918.759623,-75843.454302
20704.880047,-6069.688724,7550.100608,-75383.797003
20704.882600,-148.041188,9030.512492,-74924.139704
20704.885153,-1924.535449,12287.418637,-75077.358804
20704.887706,-2664.741391,14359.995275,-74770.920605
20704.890258,6957.935855,9474.636058,-75230.577904
20704.892811,-6661.853478,8734.430116,-75077.358804
20704.895364,-148.041188,8438.347739,-75077.358804
20704.897917,-1776.494261,13323.706956,-74770.920605
20704.900470,-2516.700203,10807.006753,-75077.358804
20704.903022,6809.894666,7550.100608,-74924.139704
20704.905575,-5477.523971,7994.224174,-72932.291410
20704.908128,9474.636058,5625.565159,-74617.701505
20704.910681,-11103.089130,9918.759623,-75383.797003
20704.913234,1036.288319,7846.182985,-75690.235202
20704.915786,-9622.677246,10066.800811,-74770.920605
20704.918339,-5329.482782,11843.295072,-73851.606007
20704.920892,-2220.617826,17320.819043,-74158.044206
20704.923445,296.082377,18949.272115,-74617.701505
20704.925997,296.082377,13027.624579,-74464.482406
20704.928550,-1776.494261,10510.924376,-73391.948708
20704.931103,-6069.688724,6809.894666,-75690.235202
20704.933656,12435.459826,592.164754,-76915.987999
20704.936209,4589.276840,-3404.947333,-74770.920605
20704.938761,3849.070898,4145.153275,-76149.892501
20704.941314,15100.201217,3108.864956,-78907.836294
20704.943867,2072.576638,-888.247130,-75690.235202
20704.946387,13471.748144,2368.659014,-73698.386908
20704.948907,2516.700203,2368.659014,-75690.235202
20704.951427,5033.400406,5329.482782,-76456.330700
20704.953947,5329.482782,4145.153275,-75230.577904
20704.956467,2072.576638,2072.576638,-75843.454302
20704.958986,5921.647536,-1036.288319,-76149.892501
20704.961506,3404.947333,7105.977043,-74617.701505
20704.964026,6809.894666,5625.565159,-76456.330700
20704.966546,592.164754,4589.276840,-77069.207099
20704.969066,11103.089130,1776.494261,-75537.016103
20704.971586,6513.812290,0.000000,-74770.920605
20704.974106,7550.100608,-3108.864956,-77222.426198
20704.976626,5477.523971,-1776.494261,-76149.892501
20704.979146,7550.100608,2516.700203,-75230.577904
20704.981666,19245.354492,-3552.988522,-76915.987999
20704.984186,-16580.613101,5329.482782,-73698.386908
20704.986705,15840.407159,9622.677246,-75843.454302
20704.989225,-12879.583391,8438.347739,-74924.139704
20704.991745,1332.370696,9326.594869,-74311.263306
20704.994265,-4885.359217,13767.830521,-74464.482406
20704.996785,-1184.329507,13619.789333,-74770.920605
20704.999305,6957.935855,8734.430116,-75383.797003
20705.001825,-6661.853478,8734.430116,-74770.920605
20705.004345,5329.482782,6513.812290,-75690.235202
20705.006865,-12583.501014,12731.542202,-74158.044206
20705.009385,-3849.070898,10807.006753,-75230.577904
20705.011905,1184.329507,10066.800811,-74770.920605
20705.014425,3552.988522,7254.018232,-74770.920605
20705.016944,-592.164754,6661.853478,-74311.263306
20705.019464,2664.741391,8142.265362,-76149.892501
20705.021984,-9918.759623,10214.842000,-76456.330700
20705.024504,-296.082377,10214.842000,-74770.920605
20705.027024,-10214.842000,12435.459826,-73851.606007
20705.029544,-1628.453072,16136.489536,-74464.482406
20705.032064,2516.700203,17172.777854,-74770.920605
20705.034584,148.041188,13471.748144,-74158.044206
20705.037104,-296.082377,9622.677246,-73698.386908
20705.039624,-8734.430116,7550.100608,-75537.016103
20705.042144,16432.571912,-3404.947333,-77988.521696
20705.044663,-6957.935855,-2516.700203,-74617.701505
20705.047194,4737.318029,4441.235652,-75996.673402
20705.049724,9178.553681,5329.482782,-77222.426198
20705.052254,5033.400406,444.123565,-75383.797003
20705.054784,6217.729913,740.205942,-74464.482406
20705.057314,3997.112087,2664.741391,-75690.235202
20705.059845,148.041188,5477.523971,-76149.892501
20705.062375,7105.977043,3849.070898,-76303.111601
20705.064905,7698.141797,3849.070898,-74617.701505
20705.067435,4145.153275,3404.947333,-75230.577904
20705.069965,4293.194464,4441.235652,-75690.235202
20705.072496,5181.441594,8142.265362,-75996.673402
20705.075026,3404.947333,4441.235652,-77069.207099
20705.077556,10658.965565,1776.494261,-75230.577904
20705.080086,8734.430116,-1184.329507,-75230.577904
20705.082616,148.041188,-1332.370696,-76149.892501
20705.085147,6957.935855,-1924.535449,-77528.864398
20705.087677,11103.089130,2072.576638,-75077.358804
20705.090207,1480.411884,-2072.576638,-75230.577904
20705.092737,-11547.212695,6661.853478,-74617.701505
20705.095267,13915.871710,9918.759623,-76149.892501
20705.097798,-10955.047942,7846.182985,-75383.797003
20705.100328,3108.864956,10658.965565,-74770.920605
20705.102858,-4145.153275,13619.789333,-74617.701505
20705.105388,-296.082377,15100.201217,-74924.139704
20705.107918,5773.606348,8142.265362,-75690.235202
20705.110448,-888.247130,7846.182985,-74770.920605
20705.112979,-6217.729913,9030.512492,-74770.920605
20705.115509,-4589.276840,12879.583391,-74311.263306
20705.118039,1036.288319,12139.377449,-74770.920605
20705.120569,-3108.864956,11399.171507,-74004.825107
20705.123099,7254.018232,4441.235652,-74311.263306
20705.125630,-3256.906145,7550.100608,-74311.263306
20705.128160,2072.576638,10066.800811,-75383.797003
20705.130690,-2960.823768,10807.006753,-75383.797003
20705.133220,-9622.677246,12879.583391,-73698.386908
20705.135750,444.123565,12879.583391,-73085.510509
20705.138281,-7846.182985,18801.230927,-74004.825107
20705.140811,10214.842000,14508.036463,-74924.139704
20705.143341,-8142.265362,13323.706956,-74004.825107
20705.145871,3256.906145,9178.553681,-74004.825107
20705.148410,-7994.224174,6513.812290,-75843.454302
20705.150950,-1036.288319,-6365.771101,-76149.892501
20705.153489,-10214.842000,2664.741391,-73085.510509
20705.156028,21614.013506,6957.935855,-76456.330700
20705.158568,6217.729913,1332.370696,-77682.083497
20705.161107,-4589.276840,1924.535449,-74004.825107
20705.163646,10214.842000,1036.288319,-74311.263306
20705.166186,-1332.370696,3997.112087,-75843.454302
20705.168725,11399.171507,4293.194464,-75996.673402
20705.171264,1036.288319,5181.441594,-74770.920605
20705.173804,8734.430116,1184.329507,-75383.797003
20705.176343,-1332.370696,4145.153275,-73391.948708
20705.178882,10955.047942,5477.523971,-74617.701505
20705.181422,-1036.288319,5329.482782,-76456.330700
20705.183961,11399.171507,2368.659014,-76456.330700
20705.186500,5773.606348,592.164754,-74311.263306
20705.189040,6661.853478,-1628.453072,-76149.892501
20705.191579,5477.523971,-2960.823768,-76915.987999
20705.194118,10362.883188,1036.288319,-75230.577904
20705.196658,15100.201217,-2812.782580,-75537.016103
20705.199197,-15840.407159,5477.523971,-74004.825107
20705.201736,14952.160028,11103.089130,-75077.358804
20705.204276,-11399.171507,9770.718434,-74464.482406
20705.206815,-3256.906145,8734.430116,-74004.825107
20705.209354,-5033.400406,13915.871710,-74158.044206
20705.211894,-1332.370696,15248.242405,-75690.235202
20705.214433,3108.864956,9178.553681,-75383.797003
20705.216972,-3701.029710,7698.141797,-74617.701505
20705.219512,-1036.288319,6513.812290,-75383.797003
20705.222051,-8290.306550,11547.212695,-74311.263306
20705.224590,-1036.288319,12435.459826,-75077.358804
20705.227130,888.247130,10955.047942,-75537.016103
20705.229669,-3108.864956,7550.100608,-73851.606007
20705.232208,9918.759623,4441.235652,-74158.044206
20705.234748,-7846.182985,9326.594869,-76915.987999
20705.237287,-2812.782580,12139.377449,-76149.892501
20705.239826,-6069.688724,12435.459826,-75230.577904
20705.242366,-3701.029710,13027.624579,-74004.825107
20705.244905,-1924.535449,18505.148550,-73545.167808
20705.247444,4885.359217,14063.912898,-74770.920605
20705.249991,-2072.576638,13027.624579,-74464.482406
20705.252537,-1184.329507,11547.212695,-74464.482406
20705.255083,4885.359217,3701.029710,-76609.549800
20705.257630,9770.718434,-6513.812290,-76915.987999
20705.260176,-6661.853478,1036.288319,-73698.386908
20705.262722,16728.654289,7254.018232,-75843.454302
20705.265268,12435.459826,2072.576638,-77069.207099
20705.267815,-7105.977043,2516.700203,-74770.920605
20705.270361,12583.501014,-444.123565,-74617.701505
20705.272907,-3701.029710,3552.988522,-75996.673402
20705.275454,10214.842000,3997.112087,-76609.549800
20705.278000,1776.494261,3849.070898,-76456.330700
20705.280546,10658.965565,-148.041188,-76609.549800
20705.283093,-2220.617826,5625.565159,-74924.139704
20705.285639,11991.336260,3997.112087,-76456.330700
20705.288185,-6513.812290,6661.853478,-75996.673402
20705.290732,21169.889941,296.082377,-75843.454302
20705.293278,-2220.617826,2220.617826,-74158.044206
20705.295824,8290.306550,-2516.700203,-77222.426198
20705.298371,4293.194464,-2072.576638,-77222.426198
20705.300917,10658.965565,-1480.411884,-75843.454302
20705.303463,10214.842000,-3256.906145,-75690.235202
20705.306009,-17764.942608,5921.647536,-74770.920605
20705.308556,17616.901420,10658.965565,-75383.797003
20705.311102,-15396.283594,9178.553681,-75383.797003
20705.313648,1036.288319,11399.171507,-73085.510509
20705.316195,-6513.812290,14804.118840,-74464.482406
20705.318741,3404.947333,13471.748144,-75383.797003
20705.321287,-888.247130,9622.677246,-74464.482406
20705.323834,-592.164754,7698.141797,-74158.044206
20705.326380,-4885.359217,6513.812290,-75537.016103
20705.328926,-4885.359217,11843.295072,-75077.358804
20705.331473,-444.123565,14063.912898,-74004.825107
20705.334019,-2072.576638,12287.418637,-74770.920605
20705.336565,5329.482782,4441.235652,-75843.454302
20705.339112,7105.977043,6809.894666,-74004.825107
20705.341658,-6513.812290,11103.089130,-75230.577904
20705.344204,-3256.906145,11547.212695,-75843.454302
20705.346750,-10214.842000,14804.118840,-74158.044206
20705.349297,-2220.617826,14952.160028,-72779.072310
20705.351848,444.123565,18209.066173,-74004.825107
20705.354401,1776.494261,13767.830521,-74617.701505
20705.356953,1924.535449,13175.665768,-73851.606007
20705.359505,-12139.377449,8882.471304,-75383.797003
20705.362058,16136.489536,-2812.782580,-77069.207099
20705.364610,-6217.729913,-5477.523971,-74924.139704
20705.367163,2516.700203,4293.194464,-75077.358804
20705.369715,19393.395680,4885.359217,-76609.549800
20705.372268,1628.453072,1036.288319,-76456.330700
20705.374820,11399.171507,1184.329507,-75383.797003
20705.377373,1036.288319,2220.617826,-74004.825107
20705.379925,5181.441594,5181.441594,-76149.892501
20705.382478,2812.782580,3552.988522,-76303.111601
20705.385030,5921.647536,3997.112087,-75537.016103
20705.387582,8586.388927,1776.494261,-75077.358804
20705.390135,-740.205942,4293.194464,-74924.139704
20705.392687,12287.418637,5625.565159,-76915.987999
20705.395240,2220.617826,2960.823768,-76762.768900
20705.397792,10214.842000,1480.411884,-75690.235202
20705.400345,3849.070898,-296.082377,-74617.701505
20705.402897,5477.523971,-2664.741391,-76609.549800
20705.405450,6957.935855,-1184.329507,-76149.892501
20705.408002,17320.819043,-3552.988522,-75537.016103
20705.410555,-15248.242405,3849.070898,-74464.482406
20705.413107,13915.871710,10066.800811,-75843.454302
20705.415659,-11843.295072,10066.800811,-75230.577904
20705.418212,-5773.606348,11103.089130,-72779.072310
20705.420764,-296.082377,14359.995275,-74004.825107
20705.423317,-5477.523971,14804.118840,-75690.235202
20705.425869,7846.182985,9622.677246,-75077.358804
20705.428422,-7550.100608,6809.894666,-74617.701505
20705.430974,-888.247130,7105.977043,-75690.235202
20705.433527,-7254.018232,10214.842000,-75077.358804
20705.436079,-3108.864956,11547.212695,-75537.016103
20705.438632,-1924.535449,12435.459826,-74617.701505
20705.441184,5181.441594,4589.276840,-74770.920605
20705.443736,-1924.535449,6069.688724,-73545.167808
20705.446289,148.041188,9326.594869,-74311.263306
20705.448841,-6069.688724,11991.336260,-75690.235202
20705.451394,-8586.388927,14063.912898,-74464.482406
20705.453916,-4293.194464,17616.901420,-72932.291410
20705.456438,3108.864956,16728.654289,-74158.044206
20705.458961,1332.370696,13471.748144,-75230.577904
20705.461483,0.000000,13323.706956,-74311.263306
20705.464005,-6365.771101,10807.006753,-75077.358804
20705.466527,8882.471304,-1924.535449,-77682.083497
20705.469049,3108.864956,-6957.935855,-75537.016103
20705.471572,-5477.523971,1480.411884,-75077.358804
20705.474094,19393.395680,3552.988522,-78448.178995
20705.476616,-1480.411884,740.205942,-76303.111601
20705.479138,13915.871710,740.205942,-75077.358804
20705.481661,-1332.370696,2664.741391,-74311.263306
20705.484183,6217.729913,2516.700203,-76303.111601
20705.486705,4589.276840,6069.688724,-75537.016103
20705.489227,9326.594869,3256.906145,-75996.673402
20705.491750,3552.988522,2516.700203,-74924.139704
20705.494272,7254.018232,3552.988522,-75537.016103
20705.496794,296.082377,3256.906145,-75843.454302
20705.499316,9770.718434,2368.659014,-75383.797003
20705.501838,5921.647536,1776.494261,-74617.701505
20705.504361,6957.935855,296.082377,-75843.454302
20705.506883,6661.853478,-2664.741391,-75996.673402
20705.509405,5921.647536,-1628.453072,-75690.235202
20705.511927,17468.860231,-4885.359217,-76303.111601
20705.514450,-15988.448347,5625.565159,-74158.044206
20705.516972,15544.324782,9622.677246,-76149.892501
20705.519494,-16580.613101,9474.636058,-75230.577904
20705.522016,2812.782580,13471.748144,-73391.948708
20705.524539,-6809.894666,16284.530724,-72779.072310
20705.527061,444.123565,14508.036463,-75690.235202
20705.529583,3108.864956,7846.182985,-75537.016103
20705.532105,-2812.782580,7254.018232,-74158.044206
20705.534627,-6069.688724,6217.729913,-75996.673402
20705.537150,-3997.112087,10362.883188,-75537.016103
20705.539672,-2368.659014,13915.871710,-74464.482406
20705.542194,-1332.370696,11547.212695,-74158.044206
20705.544716,1924.535449,5773.606348,-75077.358804
20705.547239,-740.205942,5625.565159,-74464.482406
20705.549761,0.000000,10066.800811,-74770.920605
20705.552283,-10362.883188,13027.624579,-76456.330700
20705.554816,-3552.988522,14508.036463,-74770.920605
20705.557350,-6513.812290,18505.148550,-72472.634111
20705.559883,8438.347739,14063.912898,-74770.920605
20705.562417,-3997.112087,12879.583391,-74464.482406
20705.564950,592.164754,12879.583391,-75383.797003
20705.567483,-2368.659014,10214.842000,-75383.797003
20705.570017,10214.842000,-4293.194464,-77222.426198
20705.572550,-3849.070898,-3256.906145,-74158.044206
20705.575084,12879.583391,4293.194464,-75383.797003
20705.577617,15100.201217,1776.494261,-76762.768900
20705.580150,-4293.194464,3108.864956,-75230.577904
20705.582684,14656.077652,592.164754,-75383.797003
20705.585217,-3701.029710,3701.029710,-75077.358804
20705.587751,8290.306550,3404.947333,-75690.235202
20705.590284,3997.112087,3997.112087,-76303.111601
20705.592817,4885.359217,4293.194464,-75383.797003
20705.595351,10807.006753,3552.988522,-74464.482406
20705.597884,1184.329507,6069.688724,-75537.016103
20705.600417,11251.130318,1776.494261,-75077.358804
20705.602951,0.000000,2368.659014,-74617.701505
20705.605484,15988.448347,-1628.453072,-76303.111601
20705.608018,-1924.535449,0.000000,-75843.454302
20705.610551,10214.842000,-3552.988522,-77528.864398
20705.613084,15100.201217,-3849.070898,-76303.111601
20705.615618,-9474.636058,-888.247130,-74770.920605
20705.618151,11399.171507,11991.336260,-75077.358804
20705.620685,-148.041188,10066.800811,-75843.454302
20705.623218,-5773.606348,10066.800811,-74617.701505
20705.625751,1776.494261,14508.036463,-73545.167808
20705.628285,-8882.471304,15248.242405,-74924.139704
20705.630818,592.164754,11991.336260,-75230.577904
20705.633352,-888.247130,7550.100608,-74311.263306
20705.635885,2220.617826,7254.018232,-74770.920605
20705.638418,-7994.224174,9326.594869,-75230.577904
20705.640952,-3849.070898,12435.459826,-74004.825107
20705.643485,-2516.700203,15100.201217,-73851.606007
20705.646019,4589.276840,5773.606348,-75690.235202
20705.648552,-3701.029710,5625.565159,-74004.825107
20705.651085,-592.164754,8290.306550,-73851.606007
20705.653619,-3701.029710,11547.212695,-75996.673402
20705.656161,-11251.130318,14656.077652,-75230.577904
20705.658703,-2516.700203,18061.024985,-72472.634111
20705.661245,1480.411884,15544.324782,-73698.386908
20705.663787,1480.411884,13175.665768,-74464.482406
20705.666328,-148.041188,13619.789333,-74770.920605
20705.668870,-3701.029710,11251.130318,-75383.797003
20705.671412,10362.883188,-1924.535449,-77375.645298
20705.673954,-2664.741391,-6365.771101,-75690.235202
20705.676496,12731.542202,3997.112087,-75230.577904
20705.679038,17172.777854,2664.741391,-76456.330700
20705.681580,-2960.823768,2368.659014,-75690.235202
20705.684122,15396.283594,1924.535449,-75383.797003
20705.686664,-2516.700203,3849.070898,-74311.263306
20705.689206,3404.947333,3997.112087,-75383.797003
20705.691748,5477.523971,4293.194464,-75537.016103
20705.694290,10658.965565,3404.947333,-75690.235202
20705.696832,2960.823768,4293.194464,-74311.263306
20705.699374,5033.400406,3849.070898,-75537.016103
20705.701916,3552.988522,3256.906145,-76149.892501
20705.704458,7550.100608,1924.535449,-75077.358804
20705.707000,5773.606348,592.164754,-74617.701505
20705.709542,7550.100608,-1332.370696,-75843.454302
20705.712084,3701.029710,-1480.411884,-76149.892501
20705.714626,19541.436869,-4737.318029,-76149.892501
20705.717168,-5921.647536,-1924.535449,-74311.263306
20705.719710,15396.283594,10362.883188,-75383.797003
20705.722251,-7994.224174,11991.336260,-75077.358804
20705.724793,-2516.700203,9918.759623,-75537.016103
20705.727335,-2664.741391,16432.571912,-73238.729609
20705.729877,-4293.194464,14656.077652,-75383.797003
20705.732419,1036.288319,11399.171507,-76303.111601
20705.734961,-1628.453072,7254.018232,-74617.701505
20705.737503,2220.617826,7254.018232,-74004.825107
20705.740045,-9622.677246,8586.388927,-75230.577904
20705.742587,-2516.700203,10955.047942,-75843.454302
20705.745129,-2220.617826,11251.130318,-74924.139704
20705.747671,4293.194464,9622.677246,-75077.358804
20705.750213,-3404.947333,5625.565159,-73698.386908
20705.752755,3404.947333,10658.965565,-73698.386908
20705.755297,-8290.306550,12287.418637,-75996.673402
20705.757846,-4441.235652,15396.283594,-74924.139704
20705.760396,-10214.842000,18061.024985,-72472.634111
20705.762946,10066.800811,13175.665768,-73851.606007
20705.765495,-4885.359217,13027.624579,-74464.482406
20705.768045,-148.041188,13767.830521,-74311.263306
20705.770594,-444.123565,11991.336260,-75230.577904
20705.773144,10214.842000,-3552.988522,-76915.987999
20705.775694,-6069.688724,-3552.988522,-74158.044206
20705.778243,10066.800811,2516.700203,-75690.235202
20705.780793,14952.160028,296.082377,-76915.987999
20705.783342,-6069.688724,3404.947333,-74464.482406
20705.785892,15100.201217,1036.288319,-75383.797003
20705.788442,-1184.329507,5921.647536,-74158.044206
20705.790991,1184.329507,3849.070898,-75077.358804
20705.793541,5921.647536,4737.318029,-75077.358804
20705.796090,7698.141797,1184.329507,-75230.577904
20705.798640,6217.729913,5477.523971,-73545.167808
20705.801190,-1332.370696,5773.606348,-76149.892501
20705.803739,10362.883188,2516.700203,-76915.987999
20705.806289,1924.535449,1036.288319,-75843.454302
20705.808838,9622.677246,-296.082377,-76303.111601
20705.811388,2812.782580,-1184.329507,-76609.549800
20705.813938,17616.901420,-3404.947333,-76609.549800
20705.816487,3108.864956,-5329.482782,-75537.016103
20705.819037,-8882.471304,2812.782580,-74464.482406
20705.821586,11695.253884,9474.636058,-75843.454302
20705.824136,-9770.718434,9030.512492,-75843.454302
20705.826685,-4145.153275,16284.530724,-72932.291410
20705.829235,-148.041188,16284.530724,-73698.386908
20705.831785,-1036.288319,14656.077652,-75843.454302
20705.834334,-1480.411884,7402.059420,-74770.920605
20705.836884,-2664.741391,6809.894666,-74158.044206
20705.839406,-3997.112087,7254.018232,-75230.577904
20705.841928,-6809.894666,9622.677246,-75537.016103
20705.844450,-3404.947333,11399.171507,-74770.920605
20705.846972,4737.318029,11251.130318,-74617.701505
20705.849494,-3256.906145,6661.853478,-74158.044206
20705.852015,6365.771101,6217.729913,-74004.825107
20705.854537,-7994.224174,13175.665768,-75383.797003
20705.857059,-5477.523971,13471.748144,-76303.111601
20705.859581,-7254.018232,18949.272115,-73698.386908
20705.862103,5625.565159,14359.995275,-73391.948708
20705.864625,-3997.112087,13323.706956,-73698.386908
20705.867147,592.164754,13175.665768,-75077.358804
20705.869669,-5033.400406,13767.830521,-75230.577904
20705.872191,11103.089130,1628.453072,-76456.330700
20705.874713,-4885.359217,-4737.318029,-75383.797003
20705.877235,7402.059420,1184.329507,-75843.454302
20705.879757,21465.972318,1036.288319,-76915.987999
20705.882279,-4885.359217,2072.576638,-74924.139704
20705.884801,17024.736666,2220.617826,-76149.892501
20705.887323,-2664.741391,5773.606348,-74617.701505
20705.889845,5033.400406,2960.823768,-75690.235202
20705.892367,5921.647536,3849.070898,-75230.577904
20705.894888,11547.212695,2516.700203,-76915.987999
20705.897410,4293.194464,2516.700203,-75077.358804
20705.899932,10510.924376,5033.400406,-75383.797003
20705.902454,2516.700203,2220.617826,-77069.207099
20705.904976,8438.347739,148.041188,-75996.673402
20705.907498,2368.659014,592.164754,-74770.920605
20705.910020,7994.224174,-1776.494261,-76609.549800
20705.912542,8734.430116,-1332.370696,-77069.207099
20705.915064,5181.441594,-6365.771101,-75230.577904
20705.917586,-5329.482782,-296.082377,-74770.920605
20705.920108,6809.894666,7698.141797,-75843.454302
20705.922630,-4145.153275,8586.388927,-75996.673402
20705.925152,-11843.295072,14211.954086,-73545.167808
20705.927674,5921.647536,17912.983796,-73545.167808
20705.930196,-7254.018232,16432.571912,-75230.577904
20705.932718,9918.759623,8142.265362,-75843.454302
20705.935240,-9770.718434,6069.688724,-74770.920605
20705.937761,4737.318029,5329.482782,-75383.797003
20705.940295,-7846.182985,11103.089130,-75537.016103
20705.942829,740.205942,11695.253884,-75537.016103
20705.945362,-9474.636058,13471.748144,-74004.825107
20705.947896,10807.006753,4589.276840,-76762.768900
20705.950429,-14359.995275,8734.430116,-73545.167808
20705.952963,3552.988522,11103.089130,-73698.386908
20705.955496,-11695.253884,15248.242405,-77069.207099
20705.958030,-2664.741391,17172.777854,-75077.358804
20705.960563,888.247130,14804.118840,-73545.167808
20705.963097,-592.164754,13175.665768,-73545.167808
20705.965631,-1480.411884,12287.418637,-75077.358804
20705.968164,-3701.029710,15248.242405,-74924.139704
20705.970698,11843.295072,1924.535449,-76609.549800
20705.973231,-2516.700203,-4885.359217,-75383.797003
20705.975765,6661.853478,-1480.411884,-75843.454302
20705.978298,16728.654289,592.164754,-76609.549800
20705.980832,-4293.194464,1776.494261,-75230.577904
20705.983365,16728.654289,2516.700203,-75537.016103
20705.985899,-592.164754,4589.276840,-75690.235202
20705.988433,5773.606348,4441.235652,-75077.358804
20705.990966,2812.782580,5477.523971,-75537.016103
20705.993500,8734.430116,1332.370696,-76149.892501
20705.996033,3256.906145,6217.729913,-75537.016103
20705.998567,2072.576638,4441.235652,-74924.139704
20706.001100,9474.636058,3256.906145,-76149.892501
20706.003634,2960.823768,-444.123565,-76149.892501
20706.006167,9474.636058,0.000000,-75383.797003
20706.008701,4293.194464,-1480.411884,-76303.111601
20706.011234,13767.830521,-2664.741391,-76915.987999
20706.013768,6069.688724,-6661.853478,-77528.864398
20706.016302,-7105.977043,148.041188,-74311.263306
20706.018835,12583.501014,7994.224174,-75230.577904
20706.021369,-10658.965565,9030.512492,-75230.577904
20706.023902,-2220.617826,17172.777854,-73238.729609
20706.026436,-3849.070898,19689.478057,-73238.729609
20706.028969,888.247130,15988.448347,-74464.482406
20706.031503,1924.535449,6809.894666,-75996.673402
20706.034036,-5625.565159,4737.318029,-75077.358804
20706.036570,1332.370696,4441.235652,-75230.577904
20706.039104,2664.741391,11991.336260,-75230.577904
20706.041647,-7698.141797,13027.624579,-75383.797003
20706.044191,5477.523971,9622.677246,-75077.358804
20706.046734,-4293.194464,6809.894666,-75383.797003
20706.049278,-740.205942,6957.935855,-74464.482406
20706.051821,-7846.182985,13619.789333,-74770.920605
20706.054365,-7254.018232,14804.118840,-76609.549800
20706.056908,-3552.988522,18949.272115,-75077.358804
20706.059452,-4293.194464,12435.459826,-73238.729609
20706.061996,3997.112087,10658.965565,-74004.825107
20706.064539,-8142.265362,14508.036463,-74617.701505
20706.067083,8290.306550,10955.047942,-76303.111601
20706.069626,4885.359217,-1036.288319,-75996.673402
20706.072170,-3997.112087,-1924.535449,-74311.263306
20706.074713,12879.583391,296.082377,-76915.987999
20706.077257,15248.242405,-1628.453072,-76762.768900
20706.079800,-3108.864956,3552.988522,-74004.825107
20706.082344,13619.789333,2516.700203,-75537.016103
20706.084888,2072.576638,6365.771101,-74311.263306
20706.087431,1332.370696,6365.771101,-74617.701505
20706.089975,4589.276840,5033.400406,-75383.797003
20706.092518,3404.947333,3108.864956,-76303.111601
20706.095062,14656.077652,3552.988522,-74617.701505
20706.097605,4441.235652,4441.235652,-76609.549800
20706.100149,8882.471304,888.247130,-76456.330700
20706.102692,3108.864956,740.205942,-74004.825107
20706.105236,6513.812290,-3108.864956,-75843.454302
20706.107780,9474.636058,-1776.494261,-76456.330700
20706.110323,12731.542202,-6809.894666,-77069.207099
20706.112867,-740.205942,-2516.700203,-74770.920605
20706.115410,-148.041188,5773.606348,-75383.797003
20706.117954,3849.070898,7994.224174,-75383.797003
20706.120497,-14359.995275,9326.594869,-74464.482406
20706.123041,9918.759623,18209.066173,-73545.167808
20706.125585,-12287.418637,19393.395680,-73391.948708
20706.128128,13323.706956,9326.594869,-75383.797003
20706.130672,-12879.583391,6661.853478,-75077.358804
20706.133215,7402.059420,3997.112087,-74617.701505
20706.135759,-14508.036463,8734.430116,-75383.797003
20706.138302,3256.906145,12139.377449,-75230.577904
20706.140846,-9918.759623,12139.377449,-74617.701505
20706.143364,16284.530724,4589.276840,-76303.111601
20706.145883,-18357.107362,7105.977043,-74158.044206
20706.148402,7402.059420,10362.883188,-74464.482406
20706.150920,-17616.901420,16432.571912,-75843.454302
20706.153439,3256.906145,17320.819043,-75843.454302
20706.155957,-3701.029710,15988.448347,-72932.291410
20706.158476,5773.606348,11399.171507,-73545.167808
20706.160994,-6957.935855,13027.624579,-74158.044206
20706.163513,4293.194464,12287.418637,-75690.235202
20706.166032,6365.771101,1332.370696,-76149.892501
20706.168550,-2812.782580,-888.247130,-74617.701505
20706.171069,10658.965565,1036.288319,-76915.987999
20706.173587,15248.242405,-2072.576638,-77222.426198
20706.176106,-3849.070898,1776.494261,-74004.825107
20706.178625,11695.253884,1480.411884,-75690.235202
20706.181143,3701.029710,5625.565159,-75537.016103
20706.183662,3552.988522,5477.523971,-74770.920605
20706.186180,9770.718434,3849.070898,-75843.454302
20706.188699,-2960.823768,2960.823768,-75690.235202
20706.191217,17320.819043,2664.741391,-75383.797003
20706.193736,-5181.441594,7254.018232,-73545.167808
20706.196255,19837.519246,1628.453072,-76762.768900
20706.198773,-7402.059420,1776.494261,-74464.482406
20706.201292,16136.489536,-3552.988522,-75383.797003
20706.203810,1036.288319,-444.123565,-76149.892501
20706.206329,21317.931130,-7402.059420,-78294.959896
20706.208847,-5625.565159,-296.082377,-74158.044206
20706.211366,6661.853478,6661.853478,-75383.797003
20706.213885,-444.123565,7846.182985,-74617.701505
20706.216403,-13175.665768,12139.377449,-74311.263306
20706.218922,6069.688724,18209.066173,-74158.044206
20706.221440,-9030.512492,18801.230927,-74004.825107
20706.223959,11991.336260,10066.800811,-74770.920605
20706.226477,-8142.265362,5329.482782,-74924.139704
20706.228996,3701.029710,3701.029710,-75383.797003
20706.231515,-11251.130318,7105.977043,-75690.235202
20706.234033,-4441.235652,11843.295072,-76149.892501
20706.236552,2220.617826,11843.295072,-76303.111601
20706.239070,-2220.617826,7402.059420,-74924.139704
20706.241589,296.082377,6365.771101,-73545.167808
20706.244121,-7105.977043,12139.377449,-73545.167808
20706.246653,-6513.812290,16432.571912,-75537.016103
20706.249185,-5921.647536,19837.519246,-75077.358804
20706.251717,1332.370696,14656.077652,-73698.386908
20706.254249,1924.535449,10362.883188,-74158.044206
20706.256781,-7254.018232,13323.706956,-74617.701505
20706.259313,7698.141797,9918.759623,-76456.330700
20706.261845,3849.070898,-444.123565,-76149.892501
20706.264377,-2368.659014,0.000000,-75230.577904
20706.266909,11547.212695,1332.370696,-77069.207099
20706.269441,13175.665768,-3404.947333,-77375.645298
20706.271973,-592.164754,2220.617826,-72932.291410
20706.274506,6365.771101,2516.700203,-76609.549800
20706.277038,7402.059420,6365.771101,-75690.235202
20706.279570,1628.453072,6069.688724,-74770.920605
20706.282102,4145.153275,6069.688724,-75690.235202
20706.284634,5921.647536,2368.659014,-76149.892501
20706.287166,4885.359217,3997.112087,-74158.044206
20706.289698,14359.995275,5181.441594,-74924.139704
20706.292230,2812.782580,1332.370696,-76915.987999
20706.294762,11103.089130,-888.247130,-75537.016103
20706.297294,-1480.411884,-1332.370696,-74311.263306
20706.299826,21169.889941,-5773.606348,-77835.302597
20706.302358,-2812.782580,-6069.688724,-77069.207099
20706.304890,1184.329507,592.164754,-76303.111601
20706.307422,8586.388927,7105.977043,-75230.577904
20706.309954,-1036.288319,5329.482782,-75690.235202
20706.312486,-13767.830521,12435.459826,-74004.825107
20706.315018,-2960.823768,18949.272115,-74158.044206
20706.317550,-2664.741391,17616.901420,-74004.825107
20706.320082,6661.853478,7846.182985,-75230.577904
20706.322614,-7698.141797,3849.070898,-74617.701505
20706.325146,1776.494261,3701.029710,-75996.673402
20706.327678,-10658.965565,7402.059420,-75077.358804
20706.330210,2812.782580,9622.677246,-76149.892501
20706.332742,-6661.853478,16432.571912,-74770.920605
20706.335275,-2220.617826,6069.688724,-74924.139704
20706.337807,-3404.947333,7402.059420,-73545.167808
20706.340339,-5477.523971,12731.542202,-74924.139704
20706.342871,-8438.347739,19541.436869,-75230.577904
20706.345381,-888.247130,17172.777854,-75077.358804
20706.347892,-1332.370696,15248.242405,-72779.072310
20706.350402,444.123565,11399.171507,-73545.167808
20706.352912,-5625.565159,14508.036463,-74311.263306
20706.355423,9178.553681,2664.741391,-76456.330700
20706.357933,-4589.276840,-740.205942,-74004.825107
20706.360444,10214.842000,2368.659014,-76609.549800
20706.362954,13027.624579,-1480.411884,-78294.959896
20706.365464,1480.411884,-1480.411884,-75077.358804
20706.367975,8734.430116,740.205942,-75077.358804
20706.370485,3404.947333,4293.194464,-75230.577904
20706.372996,8882.471304,6217.729913,-75383.797003
20706.375506,2812.782580,6069.688724,-75383.797003
20706.378016,1480.411884,3552.988522,-75843.454302
20706.380527,10214.842000,3849.070898,-75230.577904
20706.383037,2812.782580,5921.647536,-74464.482406
20706.385547,15840.407159,3552.988522,-75690.235202
20706.388058,-444.123565,1480.411884,-75537.016103
20706.390568,13027.624579,-2960.823768,-75537.016103
20706.393079,1924.535449,-3108.864956,-75843.454302
20706.395589,21465.972318,-8734.430116,-77375.645298
20706.398099,-7402.059420,-592.164754,-74924.139704
20706.400610,8290.306550,7698.141797,-75077.358804
20706.403120,-296.082377,7698.141797,-74004.825107
20706.405631,-16284.530724,9770.718434,-74004.825107
20706.408141,4885.359217,15988.448347,-73391.948708
20706.410651,-12435.459826,19689.478057,-73391.948708
20706.413162,9918.759623,12139.377449,-75077.358804
20706.415672,-7402.059420,6661.853478,-74617.701505
20706.418183,4885.359217,4293.194464,-74617.701505
20706.420693,-6217.729913,7254.018232,-74770.920605
20706.423203,-5921.647536,11695.253884,-76303.111601
20706.425714,0.000000,11103.089130,-76456.330700
20706.428224,-3997.112087,9622.677246,-75690.235202
20706.430734,1776.494261,5477.523971,-74004.825107
20706.433245,-9326.594869,12139.377449,-74311.263306
20706.435755,-5625.565159,14804.118840,-75230.577904
20706.438266,0.000000,17912.983796,-75383.797003
20706.440776,-3997.112087,15988.448347,-73698.386908
20706.443286,592.164754,11843.295072,-73391.948708
20706.445813,-6957.935855,15396.283594,-74158.044206
20706.448339,13175.665768,5329.482782,-76609.549800
20706.450865,148.041188,-1776.494261,-75230.577904
20706.453391,1628.453072,740.205942,-76149.892501
20706.455917,13471.748144,740.205942,-77528.864398
20706.458443,1332.370696,-1924.535449,-75383.797003
20706.460970,11103.089130,888.247130,-74311.263306
20706.463496,5329.482782,5773.606348,-75077.358804
20706.466022,7105.977043,6809.894666,-75537.016103
20706.468548,-1184.329507,7402.059420,-74464.482406
20706.471074,9770.718434,3552.988522,-75843.454302
20706.473600,-148.041188,1628.453072,-75843.454302
20706.476126,11991.336260,6069.688724,-74464.482406
20706.478653,5773.606348,3256.906145,-75843.454302
20706.481179,7254.018232,-592.164754,-76456.330700
20706.483705,6365.771101,-1628.453072,-74924.139704
20706.486231,9474.636058,-4589.276840,-75690.235202
20706.488757,12435.459826,-6957.935855,-77835.302597
20706.491283,-1480.411884,-2368.659014,-75996.673402
20706.493810,5329.482782,8438.347739,-75537.016103
20706.496336,6513.812290,6365.771101,-75843.454302
20706.498862,-12583.501014,10658.965565,-74924.139704
20706.501388,2072.576638,16580.613101,-73698.386908
20706.503914,-6513.812290,18505.148550,-74158.044206
20706.506440,6661.853478,11547.212695,-74770.920605
20706.508966,-3849.070898,6365.771101,-75690.235202
20706.511493,740.205942,3256.906145,-75230.577904
20706.514019,-7254.018232,5477.523971,-75077.358804
20706.516545,-1480.411884,7994.224174,-75537.016103
20706.519071,-8586.388927,14211.954086,-75690.235202
20706.521597,592.164754,7254.018232,-75230.577904
20706.524123,-4885.359217,6365.771101,-74311.263306
20706.526650,-740.205942,9770.718434,-74464.482406
20706.529176,-11843.295072,18209.066173,-75383.797003
20706.531702,2516.700203,16876.695478,-76456.330700
20706.534228,-8882.471304,16728.654289,-73698.386908
20706.536754,4885.359217,11399.171507,-73391.948708
20706.539280,-11695.253884,14508.036463,-73545.167808
20706.541806,14804.118840,2368.659014,-76762.768900
20706.544333,-6365.771101,-740.205942,-73851.606007
20706.546872,11695.253884,1924.535449,-75843.454302
20706.549412,11843.295072,0.000000,-77682.083497
20706.551952,-888.247130,-1924.535449,-75996.673402
20706.554492,13027.624579,2220.617826,-74770.920605
20706.557031,4589.276840,5477.523971,-75383.797003
20706.559571,8882.471304,8438.347739,-75690.235202
20706.562111,-6069.688724,4885.359217,-74770.920605
20706.564650,18357.107362,2072.576638,-76303.111601
20706.567190,-12583.501014,6069.688724,-72166.195912
20706.569730,25315.043216,2960.823768,-74464.482406
20706.572270,-5773.606348,5329.482782,-74770.920605
20706.574809,19837.519246,-888.247130,-76303.111601
20706.577349,-4737.318029,296.082377,-73085.510509
20706.579889,20725.766376,-7698.141797,-76762.768900
20706.582429,-3256.906145,-4589.276840,-75843.454302
20706.584968,1628.453072,888.247130,-75996.673402
20706.587508,12879.583391,9770.718434,-75690.235202
20706.590048,-1924.535449,6069.688724,-75690.235202
20706.592587,-12731.542202,14508.036463,-72932.291410
20706.595127,1776.494261,15248.242405,-75077.358804
20706.597667,-7698.141797,18801.230927,-74464.482406
20706.600207,10955.047942,9030.512492,-76303.111601
20706.602746,-2812.782580,3256.906145,-75843.454302
20706.605286,740.205942,2664.741391,-74617.701505
20706.607826,-7550.100608,6661.853478,-74770.920605
20706.610366,0.000000,10955.047942,-76303.111601
20706.612905,-8438.347739,11399.171507,-74617.701505
20706.615445,6217.729913,6217.729913,-75383.797003
20706.617985,-8290.306550,7846.182985,-73851.606007
20706.620524,-2072.576638,12583.501014,-74311.263306
20706.623064,-7994.224174,17912.983796,-76149.892501
20706.625604,-1924.535449,17024.736666,-75077.358804
20706.628144,888.247130,13323.706956,-74004.825107
20706.630683,-9918.759623,14804.118840,-73391.948708
20706.633223,17616.901420,6809.894666,-76456.330700
20706.635763,-1332.370696,-1776.494261,-75690.235202
20706.638302,-2960.823768,-1036.288319,-75383.797003
20706.640842,14063.912898,1184.329507,-77528.864398
20706.643382,8734.430116,-3849.070898,-77069.207099
20706.645922,-3849.070898,2960.823768,-74004.825107
20706.648472,17172.777854,2812.782580,-75996.673402
20706.651022,148.041188,7550.100608,-75230.577904
20706.653572,5625.565159,7550.100608,-74311.263306
20706.656122,4293.194464,4441.235652,-75690.235202
20706.658672,2960.823768,3256.906145,-75996.673402
20706.661223,9770.718434,6365.771101,-73391.948708
20706.663773,8290.306550,4737.318029,-75077.358804
20706.666323,8290.306550,1776.494261,-75690.235202
20706.668873,4145.153275,-1480.411884,-74770.920605
20706.671423,9030.512492,-2664.741391,-74617.701505
20706.673973,2516.700203,-7550.100608,-76609.549800
20706.676524,-3108.864956,-1628.453072,-76303.111601
20706.679074,12731.542202,7994.224174,-76456.330700
20706.681624,-740.205942,7550.100608,-74617.701505
20706.684174,-13767.830521,11399.171507,-74004.825107
20706.686724,3701.029710,15100.201217,-73698.386908
20706.689274,-8734.430116,18505.148550,-74004.825107
20706.691825,7105.977043,11843.295072,-75077.358804
20706.694375,-5181.441594,4885.359217,-75690.235202
20706.696925,740.205942,2960.823768,-75077.358804
20706.699475,-2516.700203,6809.894666,-74311.263306
20706.702025,-6957.935855,10214.842000,-75383.797003
20706.704575,-444.123565,13027.624579,-75230.577904
20706.707126,-1924.535449,8734.430116,-75690.235202
20706.709676,-148.041188,6809.894666,-74158.044206
20706.712226,-7846.182985,11547.212695,-73698.386908
20706.714776,-444.123565,16580.613101,-76915.987999
20706.717326,-9622.677246,17172.777854,-74770.920605
20706.719876,5181.441594,13915.871710,-73545.167808
20706.722427,-13915.871710,15100.201217,-73085.510509
20706.724977,10510.924376,10955.047942,-75843.454302
20706.727527,8438.347739,1036.288319,-75230.577904
20706.730077,-1332.370696,444.123565,-74004.825107
20706.732627,9918.759623,2516.700203,-76609.549800
