#time,accel_x,accel_y,accel_z
25120.877124,1924.535449,6217.729913,-75383.797003
25120.879690,1924.535449,6661.853478,-75230.577904
25120.882256,1628.453072,6217.729913,-75230.577904
25120.884822,1480.411884,6365.771101,-75230.577904
25120.887388,2960.823768,6513.812290,-75690.235202
25120.889955,1924.535449,6661.853478,-75230.577904
25120.892521,1924.535449,6513.812290,-75537.016103
25120.895087,3256.906145,8290.306550,-74924.139704
25120.897653,6513.812290,7105.977043,-75077.358804
25120.900219,3404.947333,8142.265362,-74464.482406
25120.902785,6069.688724,7402.059420,-74924.139704
25120.905351,1776.494261,8290.306550,-75077.358804
25120.907917,3108.864956,9622.677246,-75077.358804
25120.910484,296.082377,9770.718434,-75230.577904
25120.913050,4589.276840,13027.624579,-74770.920605
25120.915616,7402.059420,13175.665768,-74464.482406
25120.918182,11251.130318,18209.066173,-73698.386908
25120.920748,6217.729913,14211.954086,-75077.358804
25120.923314,-8290.306550,1036.288319,-75996.673402
25120.925880,-740.205942,-2960.823768,-74924.139704
25120.928446,-7994.224174,-1628.453072,-75230.577904
25120.931013,6661.853478,1776.494261,-77069.207099
25120.933579,-1924.535449,1332.370696,-77528.864398
25120.936145,1332.370696,4737.318029,-74004.825107
25120.938711,-1924.535449,5625.565159,-73391.948708
25120.941277,-2072.576638,7105.977043,-74770.920605
25120.943843,4737.318029,12287.418637,-75996.673402
25120.946409,2664.741391,8882.471304,-75077.358804
25120.948975,5921.647536,6217.729913,-75230.577904
25120.951542,-2960.823768,-592.164754,-75843.454302
25120.954108,-4737.318029,-740.205942,-74311.263306
25120.956674,-3701.029710,2664.741391,-73698.386908
25120.959240,5329.482782,10214.842000,-76149.892501
25120.961806,2220.617826,8142.265362,-76915.987999
25120.964372,1036.288319,3404.947333,-75690.235202
25120.966938,1184.329507,4145.153275,-73545.167808
25120.969504,-8882.471304,6661.853478,-75690.235202
25120.972071,-296.082377,6661.853478,-77835.302597
25120.974637,-2368.659014,3997.112087,-76303.111601
25120.977203,6661.853478,1924.535449,-75537.016103
25120.979769,444.123565,-148.041188,-75230.577904
25120.982306,-592.164754,4293.194464,-74617.701505
25120.984843,3108.864956,9918.759623,-74158.044206
25120.987380,-3552.988522,8142.265362,-75996.673402
25120.989917,-6365.771101,4441.235652,-75537.016103
25120.992454,-3849.070898,-888.247130,-74924.139704
25120.994991,3404.947333,-740.205942,-74924.139704
25120.997528,4441.235652,6513.812290,-75383.797003
25121.000065,-592.164754,6957.935855,-76303.111601
25121.002602,-3701.029710,1480.411884,-76303.111601
25121.005139,6957.935855,7402.059420,-73698.386908
25121.007676,-6217.729913,6661.853478,-75077.358804
25121.010213,3256.906145,15100.201217,-74311.263306
25121.012750,10214.842000,8142.265362,-76609.549800
25121.015287,1332.370696,6069.688724,-75690.235202
25121.017824,-4441.235652,-2664.741391,-74004.825107
25121.020361,12731.542202,3108.864956,-74770.920605
25121.022898,6365.771101,17764.942608,-76303.111601
25121.025435,8734.430116,18505.148550,-75383.797003
25121.027972,-2220.617826,10955.047942,-74464.482406
25121.030509,-4441.235652,1628.453072,-75077.358804
25121.033046,6069.688724,3997.112087,-74004.825107
25121.035583,3997.112087,7105.977043,-74924.139704
25121.038120,14211.954086,11399.171507,-76762.768900
25121.040657,1184.329507,7994.224174,-76149.892501
25121.043194,1036.288319,6513.812290,-72779.072310
25121.045731,-6957.935855,5625.565159,-73851.606007
25121.048268,6661.853478,8734.430116,-76456.330700
25121.050805,7550.100608,13915.871710,-74924.139704
25121.053342,11991.336260,12287.418637,-74311.263306
25121.055879,2664.741391,6365.771101,-76915.987999
25121.058416,1776.494261,3997.112087,-76609.549800
25121.060953,-1332.370696,7402.059420,-72319.415011
25121.063490,148.041188,8882.471304,-74158.044206
25121.066027,11103.089130,8734.430116,-76149.892501
25121.068564,7698.141797,7994.224174,-73545.167808
25121.071101,5773.606348,9030.512492,-74770.920605
25121.073638,2516.700203,6365.771101,-77222.426198
25121.076175,3108.864956,10658.965565,-76303.111601
25121.078712,444.123565,11991.336260,-74464.482406
25121.081249,7105.977043,12287.418637,-75996.673402
25121.083792,296.082377,7105.977043,-76762.768900
25121.086335,8882.471304,7994.224174,-74158.044206
25121.088877,3997.112087,8586.388927,-74311.263306
25121.091420,5033.400406,10362.883188,-75690.235202
25121.093963,-5329.482782,4589.276840,-75996.673402
25121.096505,592.164754,3701.029710,-74770.920605
25121.099048,10362.883188,8290.306550,-73698.386908
25121.101590,10807.006753,13915.871710,-74924.139704
25121.104133,592.164754,9030.512492,-76456.330700
25121.106676,9326.594869,10066.800811,-73698.386908
25121.109218,-9030.512492,3997.112087,-73698.386908
25121.111761,296.082377,740.205942,-76303.111601
25121.114303,-444.123565,7698.141797,-77069.207099
25121.116846,11843.295072,9030.512492,-74770.920605
25121.119389,5773.606348,1924.535449,-75843.454302
25121.121931,-2220.617826,-3997.112087,-75383.797003
25121.124474,-7994.224174,1332.370696,-75690.235202
25121.127016,-6365.771101,9918.759623,-74311.263306
25121.129559,148.041188,9918.759623,-76762.768900
25121.132102,4441.235652,3997.112087,-76456.330700
25121.134644,444.123565,-2664.741391,-74311.263306
25121.137187,-444.123565,592.164754,-73851.606007
25121.139730,-3552.988522,3108.864956,-76303.111601
25121.142272,-888.247130,10362.883188,-76303.111601
25121.144815,296.082377,9474.636058,-75230.577904
25121.147357,5329.482782,7698.141797,-75077.358804
25121.149900,-2516.700203,592.164754,-76915.987999
25121.152443,0.000000,4145.153275,-75383.797003
25121.154985,444.123565,4589.276840,-73851.606007
25121.157528,-1480.411884,7994.224174,-75996.673402
25121.160070,3552.988522,5773.606348,-78448.178995
25121.162613,148.041188,4737.318029,-75077.358804
25121.165156,-1332.370696,1036.288319,-74464.482406
25121.167698,-1776.494261,2960.823768,-77222.426198
25121.170241,-3701.029710,2516.700203,-77682.083497
25121.172783,2812.782580,5625.565159,-75690.235202
25121.175326,7550.100608,4441.235652,-75690.235202
25121.177869,-592.164754,2664.741391,-75690.235202
25121.180411,1332.370696,5477.523971,-74311.263306
25121.182954,-11843.295072,2072.576638,-74311.263306
25121.185501,-1184.329507,2960.823768,-75690.235202
25121.188049,-1924.535449,2368.659014,-76149.892501
25121.190596,9770.718434,8142.265362,-75230.577904
25121.193144,-4145.153275,4885.359217,-75690.235202
25121.195691,-1628.453072,-148.041188,-75077.358804
25121.198239,3552.988522,7402.059420,-73238.729609
25121.200786,-3997.112087,7550.100608,-75077.358804
25121.203334,740.205942,9474.636058,-75843.454302
25121.205881,8290.306550,7402.059420,-75690.235202
25121.208429,2220.617826,8142.265362,-74464.482406
25121.210976,3108.864956,2960.823768,-75843.454302
25121.213524,10066.800811,9770.718434,-75230.577904
25121.216072,5329.482782,16728.654289,-74158.044206
25121.218619,7402.059420,13915.871710,-74617.701505
25121.221167,-4589.276840,4293.194464,-75843.454302
25121.223714,-2516.700203,0.000000,-75537.016103
25121.226262,6957.935855,4441.235652,-74770.920605
25121.228809,5773.606348,9030.512492,-74770.920605
25121.231357,13471.748144,12435.459826,-76609.549800
25121.233904,740.205942,9918.759623,-75230.577904
25121.236452,1036.288319,7550.100608,-73545.167808
25121.238999,-6217.729913,6217.729913,-75230.577904
25121.241547,6513.812290,8438.347739,-76456.330700
25121.244094,9178.553681,9326.594869,-76456.330700
25121.246642,9918.759623,9178.553681,-74617.701505
25121.249189,3552.988522,7105.977043,-76149.892501
25121.251737,592.164754,5033.400406,-75077.358804
25121.254284,-296.082377,5329.482782,-74464.482406
25121.256832,2516.700203,9622.677246,-74617.701505
25121.259379,7846.182985,8882.471304,-76762.768900
25121.261927,9918.759623,8142.265362,-75537.016103
25121.264474,6957.935855,7254.018232,-74311.263306
25121.267022,296.082377,7550.100608,-75230.577904
25121.269569,-1924.535449,8438.347739,-75537.016103
25121.272117,2812.782580,13471.748144,-74004.825107
25121.274664,6661.853478,11991.336260,-75843.454302
25121.277212,10066.800811,10955.047942,-75230.577904
25121.279759,6957.935855,8882.471304,-74158.044206
25121.282307,-2812.782580,5329.482782,-75383.797003
25121.284854,-4737.318029,3108.864956,-75230.577904
25121.287405,-1184.329507,4589.276840,-75690.235202
25121.289956,17024.736666,13323.706956,-74617.701505
25121.292507,6069.688724,13027.624579,-75383.797003
25121.295057,9178.553681,8142.265362,-75383.797003
25121.297608,-1924.535449,7402.059420,-72779.072310
25121.300159,-19097.313304,3108.864956,-74770.920605
25121.302710,-3849.070898,4145.153275,-77375.645298
25121.305260,5625.565159,8142.265362,-77069.207099
25121.307811,19689.478057,6957.935855,-75077.358804
25121.310362,-7846.182985,-4145.153275,-75230.577904
25121.312913,4145.153275,-3108.864956,-75230.577904
25121.315463,-13915.871710,4737.318029,-74158.044206
25121.318014,740.205942,13471.748144,-75230.577904
25121.320565,-1776.494261,8586.388927,-77069.207099
25121.323116,11991.336260,2516.700203,-75996.673402
25121.325667,-1332.370696,-3997.112087,-74924.139704
25121.328217,-2960.823768,592.164754,-74770.920605
25121.330768,-4441.235652,3552.988522,-77528.864398
25121.333319,-1480.411884,10214.842000,-76303.111601
25121.335870,1036.288319,9326.594869,-74924.139704
25121.338420,1332.370696,3701.029710,-74311.263306
25121.340971,4145.153275,592.164754,-76609.549800
25121.343522,-5329.482782,5033.400406,-73698.386908
25121.346073,-1924.535449,2960.823768,-76303.111601
25121.348623,-4293.194464,8882.471304,-75383.797003
25121.351174,7254.018232,6513.812290,-74924.139704
25121.353725,-2220.617826,2812.782580,-74770.920605
25121.356276,3108.864956,2812.782580,-74311.263306
25121.358827,-6661.853478,1480.411884,-76915.987999
25121.361377,3256.906145,6513.812290,-75843.454302
25121.363928,-1776.494261,4441.235652,-74924.139704
25121.366479,2960.823768,3552.988522,-76915.987999
25121.369030,-5625.565159,-888.247130,-76303.111601
25121.371580,-1628.453072,1184.329507,-74158.044206
25121.374131,-2220.617826,2664.741391,-74924.139704
25121.376682,6217.729913,9326.594869,-75690.235202
25121.379233,-740.205942,7402.059420,-75230.577904
25121.381783,-4885.359217,-592.164754,-75996.673402
25121.384334,9770.718434,5625.565159,-73851.606007
25121.386885,-6661.853478,3997.112087,-75383.797003
25121.389439,5181.441594,7994.224174,-76303.111601
25121.391993,-2812.782580,2368.659014,-77222.426198
25121.394546,12139.377449,12435.459826,-74004.825107
25121.397100,-10066.800811,3256.906145,-74311.263306
25121.399654,17024.736666,8142.265362,-75230.577904
25121.402208,8142.265362,18801.230927,-73851.606007
25121.404761,9326.594869,15396.283594,-74311.263306
25121.407315,-2072.576638,6809.894666,-75537.016103
25121.409869,-6661.853478,-1332.370696,-75996.673402
25121.412423,5625.565159,1332.370696,-75537.016103
25121.414976,5921.647536,7994.224174,-74004.825107
25121.417530,9918.759623,11547.212695,-76609.549800
25121.420084,10362.883188,12435.459826,-76609.549800
25121.422638,-888.247130,9178.553681,-72625.853210
25121.425191,-4441.235652,6957.935855,-73085.510509
25121.427745,-1036.288319,7846.182985,-77682.083497
25121.430299,11547.212695,9622.677246,-76456.330700
25121.432852,7698.141797,8586.388927,-75690.235202
25121.435406,8438.347739,9178.553681,-74464.482406
25121.437960,1036.288319,4145.153275,-75077.358804
25121.440514,-2960.823768,6365.771101,-73391.948708
25121.443067,3701.029710,6957.935855,-74770.920605
25121.445621,3256.906145,8882.471304,-75996.673402
25121.448175,14952.160028,11843.295072,-74770.920605
25121.450729,1480.411884,8290.306550,-73238.729609
25121.453282,2220.617826,4737.318029,-74770.920605
25121.455836,-3404.947333,7105.977043,-74617.701505
25121.458390,3997.112087,12731.542202,-74158.044206
25121.460944,8438.347739,16136.489536,-74004.825107
25121.463497,12879.583391,14804.118840,-75537.016103
25121.466051,-1480.411884,5921.647536,-74617.701505
25121.468605,-2516.700203,296.082377,-75077.358804
25121.471159,-2812.782580,888.247130,-75230.577904
25121.473712,13175.665768,12139.377449,-74924.139704
25121.476266,5773.606348,11399.171507,-76915.987999
25121.478820,9178.553681,7402.059420,-75383.797003
25121.481374,2368.659014,7105.977043,-73085.510509
25121.483927,-18801.230927,2072.576638,-74158.044206
25121.486481,-4737.318029,4441.235652,-76303.111601
25121.489035,3108.864956,8882.471304,-76456.330700
25121.491592,20725.766376,9178.553681,-75383.797003
25121.494148,-8734.430116,-4885.359217,-75230.577904
25121.496705,888.247130,-4885.359217,-75690.235202
25121.499261,-13027.624579,4293.194464,-74311.263306
25121.501818,-1776.494261,12287.418637,-74924.139704
25121.504375,444.123565,11547.212695,-77222.426198
25121.506931,7550.100608,3552.988522,-76456.330700
25121.509488,888.247130,-1332.370696,-73851.606007
25121.512044,-2812.782580,-888.247130,-74311.263306
25121.514601,-4885.359217,4145.153275,-77988.521696
25121.517158,2664.741391,10066.800811,-75383.797003
25121.519714,2960.823768,8882.471304,-72932.291410
25121.522271,1332.370696,4441.235652,-73698.386908
25121.524828,3108.864956,1184.329507,-75843.454302
25121.527384,-5033.400406,4885.359217,-74311.263306
25121.529941,-3108.864956,9326.594869,-74004.825107
25121.532497,2072.576638,6957.935855,-75996.673402
25121.535054,2368.659014,4293.194464,-77069.207099
25121.537611,3108.864956,3701.029710,-74770.920605
25121.540167,-2664.741391,740.205942,-76456.330700
25121.542724,-296.082377,2960.823768,-77528.864398
25121.545280,-3108.864956,4589.276840,-75690.235202
25121.547837,-1332.370696,4885.359217,-74770.920605
25121.550394,-3849.070898,-1628.453072,-77069.207099
25121.552950,-3108.864956,-2072.576638,-76609.549800
25121.555507,8290.306550,5625.565159,-73545.167808
25121.558063,-1184.329507,9770.718434,-74770.920605
25121.560620,-888.247130,9178.553681,-76456.330700
25121.563177,-5477.523971,-592.164754,-75690.235202
25121.565733,8142.265362,7698.141797,-72932.291410
25121.568290,-2960.823768,3849.070898,-75077.358804
25121.570847,-1480.411884,4293.194464,-77682.083497
25121.573403,8142.265362,7402.059420,-75843.454302
25121.575960,-6513.812290,8882.471304,-73698.386908
25121.578516,12731.542202,5773.606348,-75843.454302
25121.581073,3552.988522,10955.047942,-74617.701505
25121.583630,9326.594869,19393.395680,-72932.291410
25121.586186,8586.388927,15100.201217,-74770.920605
25121.588743,-5329.482782,6809.894666,-75843.454302
25121.591299,-3701.029710,-444.123565,-75537.016103
25121.593858,888.247130,444.123565,-75077.358804
25121.596416,12287.418637,8882.471304,-74617.701505
25121.598974,9326.594869,11695.253884,-76915.987999
25121.601532,7698.141797,15840.407159,-74311.263306
25121.604091,-740.205942,10658.965565,-73545.167808
25121.606649,-2812.782580,7698.141797,-74158.044206
25121.609207,-2664.741391,5921.647536,-75077.358804
25121.611765,10066.800811,11103.089130,-74158.044206
25121.614324,9918.759623,7698.141797,-75996.673402
25121.616882,6513.812290,6365.771101,-75843.454302
25121.619440,1628.453072,3997.112087,-75230.577904
25121.621999,-2220.617826,4589.276840,-73085.510509
25121.624557,1776.494261,7105.977043,-74004.825107
25121.627115,6365.771101,11695.253884,-75843.454302
25121.629673,8586.388927,11251.130318,-75230.577904
25121.632232,6513.812290,9030.512492,-74311.263306
25121.634790,2072.576638,5181.441594,-74617.701505
25121.637348,444.123565,10955.047942,-74158.044206
25121.639906,7994.224174,15396.283594,-74311.263306
25121.642465,7550.100608,17024.736666,-74004.825107
25121.645023,296.082377,5773.606348,-75843.454302
25121.647581,-1628.453072,148.041188,-75383.797003
25121.650139,6661.853478,2516.700203,-74770.920605
25121.652698,12731.542202,11695.253884,-74464.482406
25121.655256,-592.164754,10214.842000,-76762.768900
25121.657814,7846.182985,9474.636058,-74311.263306
25121.660372,-3404.947333,6957.935855,-74004.825107
25121.662931,-7254.018232,148.041188,-75383.797003
25121.665489,-5773.606348,3108.864956,-77375.645298
25121.668047,11547.212695,6661.853478,-75843.454302
25121.670605,8438.347739,6661.853478,-74924.139704
25121.673164,-3997.112087,-2664.741391,-74924.139704
25121.675722,-5477.523971,-3552.988522,-75996.673402
25121.678280,-6513.812290,4885.359217,-74158.044206
25121.680838,1480.411884,10955.047942,-75230.577904
25121.683397,1332.370696,8142.265362,-76762.768900
25121.685955,3552.988522,3849.070898,-74770.920605
25121.688513,-4293.194464,-1776.494261,-73698.386908
25121.691071,-1332.370696,1184.329507,-75230.577904
25121.693630,-5033.400406,2812.782580,-77375.645298
25121.696161,5625.565159,7994.224174,-76303.111601
25121.698692,4145.153275,8586.388927,-74311.263306
25121.701223,148.041188,1184.329507,-75996.673402
25121.703754,-1628.453072,4737.318029,-75383.797003
25121.706286,-2664.741391,7846.182985,-73851.606007
25121.708817,1628.453072,7105.977043,-75383.797003
25121.711348,1184.329507,7994.224174,-76303.111601
25121.713879,1776.494261,5033.400406,-74311.263306
25121.716410,1332.370696,1332.370696,-72932.291410
25121.718941,-2812.782580,-148.041188,-75843.454302
25121.721473,-2812.782580,2812.782580,-76609.549800
25121.724004,-3701.029710,2368.659014,-75843.454302
25121.726535,-444.123565,2664.741391,-75537.016103
25121.729066,-4589.276840,-2220.617826,-77069.207099
25121.731597,9474.636058,7846.182985,-74924.139704
25121.734128,-4145.153275,8142.265362,-74158.044206
25121.736660,-740.205942,5921.647536,-76303.111601
25121.739191,-2960.823768,1480.411884,-76609.549800
25121.741722,-1480.411884,3552.988522,-74464.482406
25121.744253,5477.523971,4737.318029,-75537.016103
25121.746784,-7698.141797,296.082377,-76762.768900
25121.749315,15692.365970,13323.706956,-73698.386908
25121.751847,-10362.883188,8586.388927,-74464.482406
25121.754378,17468.860231,10658.965565,-75230.577904
25121.756909,740.205942,13323.706956,-74004.825107
25121.759440,12583.501014,17616.901420,-74004.825107
25121.761971,-148.041188,9622.677246,-75230.577904
25121.764502,-6365.771101,2516.700203,-75383.797003
25121.767034,1924.535449,592.164754,-75690.235202
25121.769565,2664.741391,3256.906145,-74464.482406
25121.772096,14211.954086,10510.924376,-75230.577904
25121.774627,7402.059420,11695.253884,-75537.016103
25121.777158,7846.182985,15692.365970,-72779.072310
25121.779689,-4737.318029,10510.924376,-73238.729609
25121.782221,-6513.812290,5033.400406,-75690.235202
25121.784752,5033.400406,5921.647536,-73698.386908
25121.787283,12879.583391,12287.418637,-71859.757712
25121.789814,2960.823768,8734.430116,-75690.235202
25121.792345,5033.400406,4885.359217,-76303.111601
25121.794876,444.123565,4589.276840,-72779.072310
25121.797415,-1036.288319,6809.894666,-73391.948708
25121.799953,3701.029710,10066.800811,-76762.768900
25121.802491,8142.265362,11399.171507,-75843.454302
25121.805030,8142.265362,9030.512492,-74158.044206
25121.807568,6957.935855,9178.553681,-73238.729609
25121.810106,1924.535449,11399.171507,-75077.358804
25121.812644,2960.823768,14211.954086,-74924.139704
25121.815183,-740.205942,14804.118840,-74158.044206
25121.817721,4441.235652,5773.606348,-75537.016103
25121.820259,1332.370696,1184.329507,-75843.454302
25121.822798,18061.024985,10362.883188,-73851.606007
25121.825336,-2664.741391,11251.130318,-75230.577904
25121.827874,4737.318029,7994.224174,-75996.673402
25121.830413,296.082377,11695.253884,-73085.510509
25121.832951,-9030.512492,5773.606348,-72932.291410
25121.835489,-1776.494261,1776.494261,-75690.235202
25121.838027,-444.123565,3997.112087,-75843.454302
25121.840566,17912.983796,8142.265362,-75230.577904
25121.843104,-8882.471304,-592.164754,-75843.454302
25121.845642,-2664.741391,-2072.576638,-76303.111601
25121.848181,-11547.212695,148.041188,-75230.577904
25121.850719,4589.276840,8438.347739,-74158.044206
25121.853257,444.123565,8142.265362,-76762.768900
25121.855795,5625.565159,5625.565159,-76609.549800
25121.858334,-592.164754,2220.617826,-74770.920605
25121.860872,-8734.430116,-444.123565,-74158.044206
25121.863410,-6069.688724,3701.029710,-76609.549800
25121.865949,3108.864956,8290.306550,-75690.235202
25121.868487,4293.194464,7698.141797,-75690.235202
25121.871025,7105.977043,7698.141797,-74311.263306
25121.873563,-1776.494261,1628.453072,-75996.673402
25121.876102,-1184.329507,5773.606348,-74004.825107
25121.878640,-6809.894666,4737.318029,-75077.358804
25121.881178,1184.329507,6217.729913,-77988.521696
25121.883717,6661.853478,5477.523971,-75690.235202
25121.886255,-1184.329507,1332.370696,-73545.167808
25121.888793,592.164754,1036.288319,-74770.920605
25121.891332,-8734.430116,-1628.453072,-76762.768900
25121.893870,-2960.823768,1776.494261,-76149.892501
25121.896408,-3256.906145,1332.370696,-75996.673402
25121.898957,9622.677246,4145.153275,-76303.111601
25121.901502,-740.205942,7254.018232,-75537.016103
25121.904046,-1036.288319,7698.141797,-74311.263306
25121.906591,-9178.553681,1036.288319,-75996.673402
25121.909135,5625.565159,9918.759623,-73391.948708
25121.911679,888.247130,6217.729913,-75383.797003
25121.914224,0.000000,2072.576638,-76456.330700
25121.916768,14211.954086,6809.894666,-74770.920605
25121.919313,-8142.265362,7402.059420,-75077.358804
25121.921857,13323.706956,9178.553681,-75537.016103
25121.924402,592.164754,11695.253884,-75996.673402
25121.926946,13175.665768,21021.848753,-73085.510509
25121.929490,8734.430116,13915.871710,-74770.920605
25121.932035,-1184.329507,6365.771101,-75996.673402
25121.934579,-6365.771101,740.205942,-75843.454302
25121.937124,444.123565,2664.741391,-73698.386908
25121.939668,10955.047942,7550.100608,-75230.577904
25121.942213,11399.171507,10214.842000,-76149.892501
25121.944757,10658.965565,14211.954086,-74311.263306
25121.947301,888.247130,12287.418637,-72625.853210
25121.949846,-592.164754,7402.059420,-73698.386908
25121.952390,-4441.235652,2220.617826,-76456.330700
25121.954935,9770.718434,9770.718434,-73698.386908
25121.957479,6365.771101,10066.800811,-75690.235202
25121.960024,6661.853478,9178.553681,-76609.549800
25121.962568,1036.288319,3997.112087,-75537.016103
25121.965112,296.082377,5773.606348,-72166.195912
25121.967657,1628.453072,8586.388927,-74617.701505
25121.970201,6365.771101,11399.171507,-77528.864398
25121.972746,11103.089130,11547.212695,-74617.701505
25121.975290,7254.018232,10362.883188,-72932.291410
25121.977835,3849.070898,13175.665768,-75690.235202
25121.980383,148.041188,11843.295072,-75843.454302
25121.982932,-2368.659014,9178.553681,-74311.263306
25121.985481,1184.329507,5773.606348,-75077.358804
25121.988029,13471.748144,4737.318029,-75843.454302
25121.990578,15988.448347,10807.006753,-74617.701505
25121.993127,-1036.288319,7402.059420,-75230.577904
25121.995675,4145.153275,6365.771101,-74464.482406
25121.998224,-6957.935855,8586.388927,-74004.825107
25122.000773,-6069.688724,592.164754,-76762.768900
25122.003322,-2516.700203,3108.864956,-77528.864398
25122.005870,13767.830521,5625.565159,-75843.454302
25122.008419,7105.977043,6365.771101,-74770.920605
25122.010968,-3849.070898,-1036.288319,-75690.235202
25122.013516,-11695.253884,-592.164754,-75537.016103
25122.016065,-6069.688724,4293.194464,-74617.701505
25122.018614,3701.029710,9030.512492,-75996.673402
25122.021163,7105.977043,6809.894666,-77528.864398
25122.023711,4441.235652,1628.453072,-75537.016103
25122.026260,-6809.894666,148.041188,-73851.606007
25122.028809,-5773.606348,-296.082377,-75077.358804
25122.031357,-6809.894666,5033.400406,-76915.987999
25122.033906,7254.018232,7402.059420,-75843.454302
25122.036455,3108.864956,7105.977043,-74770.920605
25122.039003,3701.029710,3552.988522,-76149.892501
25122.041552,-5181.441594,3404.947333,-75077.358804
25122.044101,-2664.741391,7105.977043,-73238.729609
25122.046650,-1184.329507,6661.853478,-74924.139704
25122.049198,-592.164754,5181.441594,-76609.549800
25122.051747,6513.812290,4441.235652,-74464.482406
25122.054296,-2368.659014,296.082377,-73545.167808
25122.056844,-4293.194464,-1036.288319,-76303.111601
25122.059393,-7698.141797,-888.247130,-75996.673402
25122.061942,0.000000,2516.700203,-75537.016103
25122.064491,6957.935855,8142.265362,-75537.016103
25122.067039,3552.988522,7846.182985,-76762.768900
25122.069588,-5921.647536,3108.864956,-76609.549800
25122.072137,-444.123565,1628.453072,-74004.825107
25122.074685,740.205942,8586.388927,-73851.606007
25122.077234,2368.659014,7550.100608,-76303.111601
25122.079783,-5773.606348,888.247130,-76762.768900
25122.082336,17912.983796,10362.883188,-72779.072310
25122.084888,-10658.965565,6365.771101,-74158.044206
25122.087441,16432.571912,9918.759623,-74311.263306
25122.089994,740.205942,14359.995275,-74311.263306
25122.092547,8734.430116,19541.436869,-73391.948708
25122.095100,9474.636058,13471.748144,-74924.139704
25122.097653,-5181.441594,3997.112087,-75843.454302
25122.100206,740.205942,740.205942,-75996.673402
25122.102759,-444.123565,3552.988522,-74311.263306
25122.105311,12583.501014,8882.471304,-76303.111601
25122.107864,9918.759623,11547.212695,-75690.235202
25122.110417,8290.306550,13767.830521,-74004.825107
25122.112970,1480.411884,10955.047942,-72779.072310
25122.115523,-888.247130,7846.182985,-74464.482406
25122.118076,-296.082377,2664.741391,-74617.701505
25122.120629,5033.400406,8438.347739,-74924.139704
25122.123181,7254.018232,11547.212695,-75843.454302
25122.125734,7994.224174,5477.523971,-77528.864398
25122.128287,-888.247130,5477.523971,-74158.044206
25122.130840,5033.400406,7994.224174,-72012.976812
25122.133393,-2368.659014,8142.265362,-75383.797003
25122.135946,13027.624579,13619.789333,-76609.549800
25122.138499,4293.194464,11843.295072,-73698.386908
25122.141051,7846.182985,14211.954086,-74464.482406
25122.143604,-2960.823768,9474.636058,-76456.330700
25122.146157,-4885.359217,5773.606348,-75843.454302
25122.148710,1036.288319,6217.729913,-74004.825107
25122.151263,15100.201217,9474.636058,-74617.701505
25122.153816,15692.365970,14063.912898,-75230.577904
25122.156369,-1184.329507,6809.894666,-76609.549800
25122.158922,6513.812290,5773.606348,-74770.920605
25122.161474,-13619.789333,6661.853478,-73698.386908
25122.164027,-2220.617826,0.000000,-77375.645298
25122.166580,-4145.153275,3108.864956,-77222.426198
25122.169133,19837.519246,7254.018232,-74311.263306
25122.171686,1924.535449,3552.988522,-74311.263306
25122.174239,-2664.741391,-1628.453072,-75230.577904
25122.176792,-13175.665768,1480.411884,-74770.920605
25122.179344,-6957.935855,7846.182985,-74617.701505
25122.181897,5625.565159,10066.800811,-75383.797003
25122.184454,7254.018232,4885.359217,-77375.645298
25122.187010,3701.029710,0.000000,-75230.577904
25122.189566,-6365.771101,-740.205942,-73085.510509
25122.192123,-9326.594869,1184.329507,-75996.673402
25122.194679,-3849.070898,6809.894666,-78448.178995
25122.197235,6957.935855,11103.089130,-76915.987999
25122.199791,4737.318029,3552.988522,-76915.987999
25122.202348,2220.617826,3701.029710,-75077.358804
25122.204904,296.082377,7402.059420,-72779.072310
25122.207460,-6365.771101,6217.729913,-73545.167808
25122.210017,-2072.576638,6957.935855,-75537.016103
25122.212573,2960.823768,3849.070898,-75996.673402
25122.215129,2220.617826,-444.123565,-76149.892501
25122.217686,740.205942,-1628.453072,-74617.701505
25122.220242,-11547.212695,-3256.906145,-76303.111601
25122.222798,-592.164754,-148.041188,-77988.521696
25122.225355,-444.123565,9474.636058,-73851.606007
25122.227911,7550.100608,9622.677246,-74617.701505
25122.230467,-9178.553681,444.123565,-77835.302597
25122.233024,4885.359217,1332.370696,-74770.920605
25122.235580,-740.205942,6217.729913,-73238.729609
25122.238136,1628.453072,8142.265362,-75690.235202
25122.240692,-7846.182985,2368.659014,-77682.083497
25122.243249,15100.201217,9178.553681,-72932.291410
25122.245805,-6957.935855,7994.224174,-73391.948708
25122.248361,14952.160028,10658.965565,-74311.263306
25122.250918,3701.029710,14952.160028,-74464.482406
25122.253474,7402.059420,19097.313304,-72779.072310
25122.256030,7994.224174,12879.583391,-74770.920605
25122.258587,-6069.688724,3108.864956,-76149.892501
25122.261143,0.000000,296.082377,-76149.892501
25122.263699,148.041188,2812.782580,-74617.701505
25122.266256,10807.006753,8586.388927,-75690.235202
25122.268812,11103.089130,12731.542202,-75383.797003
25122.271368,4885.359217,14804.118840,-72166.195912
25122.273925,-3552.988522,12435.459826,-73085.510509
25122.276481,-592.164754,5921.647536,-75996.673402
25122.279037,2220.617826,6217.729913,-75230.577904
25122.281593,10807.006753,9030.512492,-75383.797003
25122.284150,6661.853478,7402.059420,-77835.302597
25122.286706,4737.318029,4441.235652,-76456.330700
25122.289262,3108.864956,5921.647536,-74004.825107
25122.291819,1184.329507,7254.018232,-73391.948708
25122.294375,4441.235652,12879.583391,-75230.577904
25122.296931,8586.388927,11843.295072,-76149.892501
25122.299488,11843.295072,17912.983796,-73391.948708
25122.302044,3108.864956,12583.501014,-73391.948708
25122.304600,-6957.935855,4885.359217,-75843.454302
25122.307160,-1036.288319,4441.235652,-73391.948708
25122.309719,13027.624579,8882.471304,-74464.482406
25122.312279,19541.436869,15396.283594,-75537.016103
25122.314838,-1924.535449,8142.265362,-77069.207099
25122.317397,3552.988522,4885.359217,-74158.044206
25122.319957,-9622.677246,4441.235652,-73698.386908
25122.322516,-6661.853478,-148.041188,-76456.330700
25122.325076,-3404.947333,4441.235652,-77835.302597
25122.327635,14804.118840,6661.853478,-75383.797003
25122.330195,11103.089130,5625.565159,-74158.044206
25122.332754,-7254.018232,-3997.112087,-76149.892501
25122.335314,-7550.100608,-1480.411884,-75690.235202
25122.337873,-6069.688724,9622.677246,-73545.167808
25122.340432,3256.906145,10807.006753,-77375.645298
25122.342992,8882.471304,7846.182985,-75996.673402
25122.345551,2664.741391,-1036.288319,-75077.358804
25122.348111,-1184.329507,-1924.535449,-74311.263306
25122.350670,-8734.430116,-592.164754,-74924.139704
25122.353230,-6957.935855,7698.141797,-75690.235202
25122.355789,5625.565159,11547.212695,-74617.701505
25122.358348,8586.388927,5477.523971,-74311.263306
25122.360908,1332.370696,1332.370696,-76149.892501
25122.363467,-5033.400406,4589.276840,-76609.549800
25122.366027,-3552.988522,7846.182985,-75383.797003
25122.368586,-4737.318029,5329.482782,-77069.207099
25122.371146,888.247130,4589.276840,-78294.959896
25122.373705,-1036.288319,-2664.741391,-76456.330700
25122.376265,2516.700203,-1924.535449,-74158.044206
25122.378824,-4293.194464,-2516.700203,-76149.892501
25122.381383,2516.700203,7550.100608,-75537.016103
25122.383943,-148.041188,10214.842000,-74311.263306
25122.386502,-1776.494261,7105.977043,-75690.235202
25122.389062,-4589.276840,-1628.453072,-75537.016103
25122.391621,9178.553681,5921.647536,-73238.729609
25122.394181,-1036.288319,5625.565159,-75077.358804
25122.396740,-1628.453072,4885.359217,-76609.549800
25122.399300,9918.759623,7550.100608,-75383.797003
25122.401859,-3997.112087,9030.512492,-74158.044206
25122.404418,13027.624579,7254.018232,-75996.673402
25122.406978,7254.018232,10510.924376,-75383.797003
25122.409539,11547.212695,21762.054695,-72625.853210
25122.412101,6957.935855,13175.665768,-74464.482406
25122.414662,-1480.411884,7550.100608,-75843.454302
25122.417224,-5773.606348,-592.164754,-75690.235202
25122.419785,-148.041188,1184.329507,-74311.263306
25122.422346,10807.006753,7550.100608,-75077.358804
25122.424908,12287.418637,11251.130318,-75537.016103
25122.427469,7698.141797,15396.283594,-73391.948708
25122.430031,-888.247130,13767.830521,-72779.072310
25122.432592,-3108.864956,8438.347739,-74770.920605
25122.435154,-148.041188,3997.112087,-75996.673402
25122.437715,7994.224174,9622.677246,-75996.673402
25122.440277,8586.388927,11695.253884,-74464.482406
25122.442838,4293.194464,5921.647536,-76609.549800
25122.445399,2220.617826,4441.235652,-75077.358804
25122.447961,1480.411884,6957.935855,-73851.606007
25122.450522,4737.318029,10362.883188,-75230.577904
25122.453084,8586.388927,14508.036463,-76762.768900
25122.455645,11103.089130,17912.983796,-74770.920605
25122.458207,0.000000,11547.212695,-74311.263306
25122.460768,-2960.823768,2960.823768,-74770.920605
25122.463329,-1036.288319,2664.741391,-73698.386908
25122.465891,17468.860231,13027.624579,-73391.948708
25122.468452,7994.224174,17912.983796,-75383.797003
25122.471014,5181.441594,8882.471304,-76762.768900
25122.473575,3849.070898,6957.935855,-74004.825107
25122.476137,-14952.160028,3997.112087,-73851.606007
25122.478698,-2960.823768,-2368.659014,-76762.768900
25122.481260,-5773.606348,3997.112087,-77069.207099
25122.483821,21910.095883,9918.759623,-75077.358804
25122.486382,-5329.482782,296.082377,-75996.673402
25122.488944,1184.329507,-3108.864956,-75690.235202
25122.491505,-18653.189738,296.082377,-73545.167808
25122.494067,-1924.535449,10214.842000,-73238.729609
25122.496628,-592.164754,10510.924376,-76762.768900
25122.499190,13027.624579,8586.388927,-77069.207099
25122.501751,-1332.370696,0.000000,-74617.701505
25122.504312,-6217.729913,-1332.370696,-74464.482406
25122.506874,-9178.553681,148.041188,-78448.178995
25122.509435,740.205942,11695.253884,-77528.864398
25122.511999,2812.782580,7105.977043,-77682.083497
25122.514562,2368.659014,5033.400406,-75537.016103
25122.517126,4441.235652,4885.359217,-74617.701505
25122.519689,-6513.812290,3997.112087,-75996.673402
25122.522252,-5773.606348,7105.977043,-73391.948708
25122.524816,-2960.823768,4589.276840,-75077.358804
25122.527379,-148.041188,-1036.288319,-77069.207099
25122.529943,2220.617826,-2960.823768,-74311.263306
25122.532506,-2516.700203,-3108.864956,-74311.263306
25122.535070,3997.112087,3108.864956,-76303.111601
25122.537633,-2812.782580,8734.430116,-75077.358804
25122.540197,-5773.606348,9622.677246,-74158.044206
25122.542760,-5033.400406,-444.123565,-76303.111601
25122.545323,5921.647536,6069.688724,-74617.701505
25122.547887,3701.029710,6661.853478,-74924.139704
25122.550450,-4885.359217,2072.576638,-76609.549800
25122.553014,9474.636058,5921.647536,-74311.263306
25122.555577,-8290.306550,10807.006753,-74924.139704
25122.558141,12583.501014,8290.306550,-76609.549800
25122.560704,6217.729913,10955.047942,-75383.797003
25122.563267,13915.871710,19245.354492,-72166.195912
25122.565831,6069.688724,12139.377449,-75230.577904
25122.568394,-2368.659014,6217.729913,-75230.577904
25122.570958,-6957.935855,1036.288319,-75690.235202
25122.573521,1480.411884,2516.700203,-75230.577904
25122.576085,8142.265362,5921.647536,-74617.701505
25122.578648,14063.912898,10362.883188,-76456.330700
25122.581211,8734.430116,14952.160028,-74617.701505
25122.583775,1184.329507,11991.336260,-73391.948708
25122.586338,-4145.153275,2220.617826,-76762.768900
25122.588902,-2220.617826,5773.606348,-76303.111601
25122.591465,10066.800811,11251.130318,-73391.948708
25122.594030,10214.842000,10807.006753,-76303.111601
25122.596594,4885.359217,7402.059420,-75996.673402
25122.599159,3552.988522,5773.606348,-72932.291410
25122.601723,592.164754,6957.935855,-72625.853210
25122.604288,7105.977043,11843.295072,-75230.577904
25122.606852,7698.141797,15544.324782,-76456.330700
25122.609417,3552.988522,16580.613101,-75077.358804
25122.611981,4145.153275,6661.853478,-75537.016103
25122.614546,-4737.318029,444.123565,-75537.016103
25122.617110,11991.336260,7105.977043,-73698.386908
25122.619675,9474.636058,14656.077652,-73851.606007
25122.622240,7254.018232,13619.789333,-76303.111601
25122.624804,2220.617826,8438.347739,-75537.016103
25122.627369,-7550.100608,6513.812290,-73545.167808
25122.629933,-6217.729913,-4293.194464,-76915.987999
25122.632498,-6217.729913,-592.164754,-77222.426198
25122.635062,13175.665768,6809.894666,-74770.920605
25122.637627,4885.359217,7846.182985,-75383.797003
25122.640191,888.247130,444.123565,-76456.330700
25122.642756,-12879.583391,-1628.453072,-76149.892501
25122.645320,-4885.359217,4885.359217,-72779.072310
25122.647885,-1628.453072,8438.347739,-76303.111601
25122.650449,12435.459826,8734.430116,-77682.083497
25122.653014,592.164754,2664.741391,-76456.330700
25122.655578,-1480.411884,-444.123565,-73851.606007
25122.658143,-11103.089130,-1924.535449,-76303.111601
25122.660707,-2368.659014,5921.647536,-77069.207099
25122.663272,1924.535449,8882.471304,-75690.235202
25122.665836,5181.441594,6809.894666,-75843.454302
25122.668401,6809.894666,3256.906145,-74924.139704
25122.670965,-3256.906145,3108.864956,-73545.167808
25122.673530,-6365.771101,5181.441594,-73698.386908
25122.676094,-5329.482782,3108.864956,-75077.358804
25122.678659,-148.041188,148.041188,-76149.892501
25122.681224,1924.535449,-2664.741391,-75537.016103
25122.683788,3701.029710,-888.247130,-74311.263306
25122.686353,-296.082377,4145.153275,-75843.454302
25122.688917,-2368.659014,9622.677246,-75230.577904
25122.691482,-12731.542202,5181.441594,-74770.920605
25122.694046,5625.565159,4293.194464,-75383.797003
25122.696611,6809.894666,5033.400406,-75537.016103
25122.699177,1332.370696,4145.153275,-76303.111601
25122.701742,-1036.288319,-592.164754,-76456.330700
25122.704308,8438.347739,12139.377449,-72779.072310
25122.706873,-11399.171507,9918.759623,-74311.263306
25122.709438,13471.748144,10066.800811,-75996.673402
25122.712004,6661.853478,14952.160028,-72932.291410
25122.714569,13027.624579,16284.530724,-72472.634111
25122.717134,4589.276840,11547.212695,-75383.797003
25122.719700,-3108.864956,4441.235652,-75383.797003
25122.722265,-2812.782580,3997.112087,-75077.358804
25122.724831,3552.988522,2516.700203,-75537.016103
25122.727396,12435.459826,8290.306550,-76149.892501
25122.729961,11399.171507,11991.336260,-76149.892501
25122.732527,8438.347739,14063.912898,-75077.358804
25122.735092,-444.123565,10658.965565,-74464.482406
25122.737657,-4145.153275,3552.988522,-77682.083497
25122.740223,10510.924376,10214.842000,-73851.606007
25122.742788,1776.494261,6957.935855,-75383.797003
25122.745353,12139.377449,11399.171507,-76303.111601
25122.747919,4589.276840,6365.771101,-75537.016103
25122.750484,4293.194464,8734.430116,-71706.538613
25122.753050,2516.700203,10066.800811,-73238.729609
25122.755615,2220.617826,13323.706956,-75996.673402
25122.758180,5921.647536,15396.283594,-75996.673402
25122.760746,1480.411884,10362.883188,-73545.167808
25122.763311,4737.318029,4293.194464,-74311.263306
25122.765876,11103.089130,7550.100608,-74004.825107
25122.768442,7105.977043,13175.665768,-73391.948708
25122.771007,444.123565,9474.636058,-75690.235202
25122.773572,2368.659014,11991.336260,-74617.701505
25122.776138,-6809.894666,8142.265362,-75077.358804
25122.778703,-4589.276840,-2960.823768,-76149.892501
25122.781269,-1332.370696,-888.247130,-75843.454302
25122.783834,14359.995275,6217.729913,-75077.358804
25122.786399,-2812.782580,4737.318029,-75537.016103
25122.788965,-296.082377,296.082377,-76303.111601
25122.791530,-14804.118840,592.164754,-75383.797003
25122.794095,148.041188,5625.565159,-73238.729609
25122.796661,-1036.288319,6513.812290,-75843.454302
25122.799227,12139.377449,7698.141797,-77835.302597
25122.801793,148.041188,1924.535449,-75537.016103
25122.804360,-2960.823768,148.041188,-73698.386908
25122.806926,-9622.677246,-296.082377,-75537.016103
25122.809492,-2960.823768,4885.359217,-75537.016103
25122.812059,6365.771101,10510.924376,-74464.482406
25122.814625,4737.318029,4145.153275,-74924.139704
25122.817192,296.082377,3256.906145,-74311.263306
25122.819758,-4885.359217,3108.864956,-74924.139704
25122.822324,-10510.924376,2516.700203,-75383.797003
25122.824891,-2812.782580,2368.659014,-76915.987999
25122.827457,-444.123565,-740.205942,-76609.549800
25122.830023,9030.512492,-148.041188,-73698.386908
25122.832590,0.000000,3108.864956,-73391.948708
25122.835156,1036.288319,6365.771101,-75996.673402
25122.837722,-13767.830521,3552.988522,-77069.207099
25122.840289,-3552.988522,3256.906145,-74158.044206
25122.842855,6661.853478,8290.306550,-75537.016103
25122.845421,3701.029710,5477.523971,-75996.673402
25122.847988,-4441.235652,-1184.329507,-76149.892501
25122.850554,13471.748144,11399.171507,-72625.853210
25122.853121,-14063.912898,9918.759623,-74617.701505
25122.855687,17172.777854,9770.718434,-76456.330700
25122.858253,296.082377,11695.253884,-74770.920605
25122.860820,18209.066173,18209.066173,-72625.853210
25122.863386,4145.153275,11251.130318,-74311.263306
25122.865952,-1628.453072,3849.070898,-76456.330700
25122.868519,-2664.741391,5033.400406,-75383.797003
25122.871085,-5329.482782,4293.194464,-74464.482406
25122.873651,16580.613101,7105.977043,-75996.673402
25122.876218,4885.359217,8586.388927,-75690.235202
25122.878784,11991.336260,14804.118840,-74617.701505
25122.881350,2368.659014,11251.130318,-74464.482406
25122.883917,-6365.771101,3256.906145,-76456.330700
25122.886483,2812.782580,6661.853478,-74770.920605
25122.889049,3256.906145,8586.388927,-74770.920605
25122.891616,12287.418637,10807.006753,-76456.330700
25122.894182,8438.347739,8290.306550,-76456.330700
25122.896749,6365.771101,9030.512492,-74004.825107
25122.899315,1628.453072,8882.471304,-72166.195912
25122.901879,2812.782580,13471.748144,-74617.701505
25122.904445,1036.288319,12287.418637,-77222.426198
25122.907012,4145.153275,11695.253884,-75230.577904
25122.909579,11991.336260,6661.853478,-74004.825107
25122.912145,12435.459826,9326.594869,-74617.701505
25122.914712,1332.370696,10362.883188,-74617.701505
25122.917278,-1628.453072,7254.018232,-75383.797003
25122.919845,2072.576638,11547.212695,-74158.044206
25122.922412,-13323.706956,5625.565159,-75537.016103
25122.924978,0.000000,-444.123565,-77069.207099
25122.927545,3849.070898,0.000000,-74770.920605
25122.930111,14952.160028,7846.182985,-74004.825107
25122.932678,-9770.718434,1184.329507,-76149.892501
25122.935245,-3108.864956,296.082377,-76456.330700
25122.937811,-11695.253884,888.247130,-75537.016103
25122.940378,5773.606348,7698.141797,-74311.263306
25122.942944,-1480.411884,5477.523971,-76609.549800
25122.945511,5921.647536,6069.688724,-75537.016103
25122.948077,-2516.700203,1924.535449,-74464.482406
25122.950644,-7254.018232,1036.288319,-74770.920605
25122.953211,-3552.988522,740.205942,-78754.617194
25122.955777,-2220.617826,6217.729913,-78141.740796
25122.958344,10807.006753,8438.347739,-76149.892501
25122.960910,444.123565,3552.988522,-76303.111601
25122.963477,3701.029710,2664.741391,-77069.207099
25122.966044,-10214.842000,1036.288319,-74158.044206
25122.968610,-3849.070898,3256.906145,-75843.454302
25122.971177,-4885.359217,-1184.329507,-77835.302597
25122.973743,10510.924376,2072.576638,-75077.358804
25122.976310,3404.947333,2516.700203,-72932.291410
25122.978876,1332.370696,3997.112087,-75537.016103
25122.981443,-12731.542202,592.164754,-77528.864398
25122.984010,-5773.606348,3108.864956,-74464.482406
25122.986576,6365.771101,9770.718434,-74924.139704
25122.989143,7846.182985,7105.977043,-76609.549800
25122.991709,-7402.059420,-148.041188,-76609.549800
25122.994276,17024.736666,8142.265362,-72319.415011
25122.996843,-11399.171507,9770.718434,-74158.044206
25122.999409,10658.965565,9178.553681,-77069.207099
25123.001976,4145.153275,11547.212695,-75843.454302
25123.004543,15544.324782,18357.107362,-71706.538613
25123.007110,10214.842000,10955.047942,-74464.482406
25123.009677,-3997.112087,5181.441594,-75690.235202
25123.012244,1480.411884,4737.318029,-75230.577904
25123.014810,-8438.347739,4589.276840,-74464.482406
25123.017377,13915.871710,6809.894666,-75230.577904
25123.019944,7698.141797,9622.677246,-75843.454302
25123.022511,13027.624579,10214.842000,-75077.358804
25123.025078,-2516.700203,10214.842000,-74158.044206
25123.027645,5181.441594,9770.718434,-75537.016103
25123.030212,-2516.700203,6957.935855,-75996.673402
25123.032779,8438.347739,10955.047942,-73698.386908
25123.035346,7105.977043,10066.800811,-76762.768900
25123.037913,10510.924376,8142.265362,-77069.207099
25123.040480,5329.482782,8290.306550,-74158.044206
25123.043047,3256.906145,9622.677246,-72472.634111
25123.045614,-2812.782580,12583.501014,-74924.139704
25123.048181,2516.700203,12435.459826,-75996.673402
25123.050748,5921.647536,10214.842000,-75230.577904
25123.053315,17616.901420,12139.377449,-73391.948708
25123.055882,7994.224174,9918.759623,-75383.797003
25123.058449,-296.082377,5033.400406,-75843.454302
25123.061016,1628.453072,6661.853478,-74464.482406
25123.063583,-6365.771101,8586.388927,-74311.263306
25123.066149,-5477.523971,-2072.576638,-79367.493593
25123.068716,-2960.823768,-592.164754,-77835.302597
25123.071283,15396.283594,4737.318029,-73391.948708
25123.073850,0.000000,5921.647536,-74617.701505
25123.076417,-1184.329507,2368.659014,-76303.111601
25123.078984,-14952.160028,1776.494261,-75077.358804
25123.081551,-2812.782580,4145.153275,-74770.920605
25123.084118,2220.617826,5773.606348,-75383.797003
25123.086685,8586.388927,5773.606348,-76456.330700
25123.089252,3108.864956,3108.864956,-76149.892501
25123.091819,-5773.606348,2960.823768,-74617.701505
25123.094386,-8734.430116,3256.906145,-75843.454302
25123.096953,-2960.823768,4589.276840,-77375.645298
25123.099520,5033.400406,9770.718434,-75690.235202
25123.102087,6957.935855,6217.729913,-74464.482406
25123.104654,-1628.453072,1480.411884,-76303.111601
25123.107221,-296.082377,2072.576638,-75996.673402
25123.109787,-12583.501014,592.164754,-75537.016103
25123.112354,-3404.947333,0.000000,-76762.768900
25123.114921,4293.194464,1184.329507,-76456.330700
25123.117488,6957.935855,4293.194464,-74464.482406
25123.120055,3108.864956,5181.441594,-74158.044206
25123.122622,-10807.006753,-592.164754,-76915.987999
25123.125188,-7105.977043,1036.288319,-75383.797003
25123.127755,2516.700203,11547.212695,-73545.167808
25123.130322,7254.018232,10362.883188,-75230.577904
25123.132889,-4293.194464,1332.370696,-77069.207099
25123.135456,15840.407159,9474.636058,-71553.319513
25123.138023,-9030.512492,9178.553681,-73238.729609
25123.140589,9178.553681,8882.471304,-76609.549800
25123.143156,1480.411884,13471.748144,-74770.920605
25123.145723,13915.871710,18061.024985,-73085.510509
25123.148290,10658.965565,12139.377449,-75383.797003
25123.150857,-5033.400406,5329.482782,-75996.673402
25123.153424,2812.782580,3256.906145,-75383.797003
25123.155990,-6809.894666,4885.359217,-75077.358804
25123.158557,9474.636058,6661.853478,-75537.016103
25123.161124,10214.842000,10807.006753,-75843.454302
25123.163691,6513.812290,11399.171507,-73391.948708
25123.166258,1480.411884,10807.006753,-73391.948708
25123.168825,148.041188,2960.823768,-75537.016103
25123.171391,-2072.576638,9326.594869,-73698.386908
25123.173958,4885.359217,10658.965565,-73391.948708
25123.176525,10214.842000,11251.130318,-76915.987999
25123.179092,12139.377449,7994.224174,-77528.864398
25123.181659,5181.441594,7402.059420,-73391.948708
25123.184225,-1036.288319,9770.718434,-73085.510509
25123.186792,-1628.453072,11547.212695,-75230.577904
25123.189359,740.205942,12139.377449,-75996.673402
25123.191926,16876.695478,14656.077652,-74158.044206
25123.194493,15248.242405,12731.542202,-73391.948708
25123.197060,2072.576638,8734.430116,-75383.797003
25123.199626,1036.288319,1776.494261,-74924.139704
25123.202193,-4737.318029,9474.636058,-72932.291410
25123.204760,-8734.430116,148.041188,-77375.645298
25123.207327,-2664.741391,0.000000,-78294.959896
25123.209894,9918.759623,1332.370696,-75843.454302
25123.212460,14508.036463,7254.018232,-73085.510509
25123.215027,-9770.718434,1924.535449,-77069.207099
25123.217593,-7402.059420,1924.535449,-76762.768900
25123.220160,-11991.336260,3552.988522,-74770.920605
25123.222726,4145.153275,5329.482782,-75077.358804
25123.225293,3849.070898,3404.947333,-77222.426198
25123.227860,4737.318029,2664.741391,-75537.016103
25123.230426,-2072.576638,2072.576638,-74464.482406
25123.232993,-11399.171507,1480.411884,-74924.139704
25123.235559,-8586.388927,5773.606348,-76149.892501
25123.238126,-148.041188,9178.553681,-75230.577904
25123.240692,7402.059420,9030.512492,-75077.358804
25123.243259,1628.453072,3849.070898,-75230.577904
25123.245826,1628.453072,2368.659014,-74158.044206
25123.248392,-6069.688724,1332.370696,-74311.263306
25123.250959,-9474.636058,444.123565,-74770.920605
25123.253525,1332.370696,1776.494261,-76609.549800
25123.256092,5773.606348,3552.988522,-75843.454302
25123.258658,4737.318029,5329.482782,-74158.044206
25123.261225,-10955.047942,-1184.329507,-76149.892501
25123.263792,-2072.576638,592.164754,-76303.111601
25123.266358,-1924.535449,8734.430116,-74004.825107
25123.268925,7105.977043,9770.718434,-77069.207099
25123.271491,-5033.400406,740.205942,-77835.302597
25123.274058,17764.942608,12287.418637,-72625.853210
25123.276624,-9770.718434,7846.182985,-73545.167808
25123.279191,13027.624579,8734.430116,-75230.577904
25123.281758,1332.370696,11399.171507,-74617.701505
25123.284324,10214.842000,16432.571912,-74158.044206
25123.286891,13027.624579,13471.748144,-74617.701505
25123.289457,-6513.812290,5625.565159,-75537.016103
25123.292024,5477.523971,4885.359217,-75383.797003
25123.294590,-8438.347739,2664.741391,-74770.920605
25123.297157,13767.830521,6957.935855,-75843.454302
25123.299724,4737.318029,9918.759623,-75537.016103
25123.302290,10807.006753,13027.624579,-73238.729609
25123.304857,1924.535449,13027.624579,-72472.634111
25123.307423,4145.153275,4293.194464,-75383.797003
25123.309990,-1776.494261,6365.771101,-74464.482406
25123.312556,9326.594869,11103.089130,-74004.825107
25123.315123,7105.977043,8734.430116,-76303.111601
25123.317690,10362.883188,10214.842000,-75690.235202
25123.320256,2220.617826,8586.388927,-73698.386908
25123.322823,-1480.411884,8586.388927,-74158.044206
25123.325390,-1184.329507,13323.706956,-74464.482406
25123.327956,3701.029710,12583.501014,-75996.673402
25123.330523,18061.024985,17172.777854,-74158.044206
25123.333090,8734.430116,14211.954086,-74158.044206
25123.335656,888.247130,2812.782580,-77222.426198
25123.338223,740.205942,4885.359217,-73545.167808
25123.340789,-14508.036463,6957.935855,-73545.167808
25123.343356,0.000000,-1628.453072,-78907.836294
25123.345923,-2812.782580,-1776.494261,-77835.302597
25123.348489,16876.695478,4293.194464,-73698.386908
25123.351056,-4589.276840,3701.029710,-75537.016103
25123.353623,-2220.617826,3256.906145,-75843.454302
25123.356189,-18357.107362,4293.194464,-74770.920605
25123.358756,-3701.029710,6513.812290,-74770.920605
25123.361322,4145.153275,4145.153275,-76915.987999
25123.363889,10807.006753,2516.700203,-76762.768900
25123.366456,2664.741391,1776.494261,-74464.482406
25123.369022,-4737.318029,2812.782580,-73851.606007
25123.371589,-10510.924376,3404.947333,-75996.673402
25123.374156,-2812.782580,10066.800811,-75537.016103
25123.376722,5921.647536,4589.276840,-75537.016103
25123.379289,6809.894666,4737.318029,-73698.386908
25123.381855,-1036.288319,1628.453072,-74158.044206
25123.384422,-5625.565159,2072.576638,-74770.920605
25123.386989,-11991.336260,-148.041188,-75077.358804
25123.389555,-2516.700203,2368.659014,-75230.577904
25123.392122,4885.359217,3997.112087,-76456.330700
25123.394689,888.247130,3256.906145,-75383.797003
25123.397255,-3997.112087,-740.205942,-75537.016103
25123.399822,-3108.864956,2220.617826,-76303.111601
25123.402388,-1036.288319,7698.141797,-75537.016103
25123.404955,4441.235652,10214.842000,-75690.235202
25123.407522,-5625.565159,2220.617826,-77069.207099
25123.410088,18801.230927,12287.418637,-73085.510509
25123.412655,-7105.977043,9918.759623,-74617.701505
25123.415193,14063.912898,8734.430116,-75077.358804
25123.417730,2072.576638,11251.130318,-72779.072310
25123.420268,5625.565159,13915.871710,-73851.606007
25123.422805,12287.418637,13619.789333,-75230.577904
25123.425343,-4293.194464,7994.224174,-75383.797003
25123.427880,5773.606348,5625.565159,-75230.577904
25123.430418,-5329.482782,5033.400406,-73391.948708
25123.432956,11251.130318,5921.647536,-74924.139704
25123.435493,8586.388927,8142.265362,-76915.987999
25123.438031,2516.700203,10807.006753,-75690.235202
25123.440568,10066.800811,12731.542202,-73545.167808
25123.443106,-7550.100608,2664.741391,-76915.987999
25123.445643,9178.553681,11251.130318,-73698.386908
25123.448181,-888.247130,7994.224174,-75230.577904
25123.450719,15544.324782,12583.501014,-75843.454302
25123.453256,1184.329507,7254.018232,-77375.645298
25123.455794,-1332.370696,8290.306550,-73238.729609
25123.458331,5033.400406,10658.965565,-73545.167808
25123.460869,-3256.906145,9770.718434,-75383.797003
25123.463407,17024.736666,17912.983796,-75077.358804
25123.465944,11695.253884,18061.024985,-72012.976812
25123.468482,8586.388927,11843.295072,-75077.358804
25123.471019,-1184.329507,592.164754,-76609.549800
25123.473557,-1036.288319,6661.853478,-73238.729609
25123.476094,-11399.171507,-3108.864956,-77222.426198
25123.478632,-2812.782580,0.000000,-77682.083497
25123.481170,7550.100608,740.205942,-76149.892501
25123.483707,15100.201217,7254.018232,-73698.386908
25123.486245,-7994.224174,2960.823768,-75996.673402
25123.488782,-6957.935855,3108.864956,-75843.454302
25123.491320,-11991.336260,4589.276840,-74924.139704
25123.493857,1924.535449,6661.853478,-74924.139704
25123.496395,7698.141797,592.164754,-77682.083497
25123.498933,6069.688724,740.205942,-75843.454302
25123.501470,0.000000,1332.370696,-73545.167808
25123.504008,-12435.459826,4737.318029,-74464.482406
25123.506545,-5477.523971,8882.471304,-76303.111601
25123.509083,-4293.194464,6069.688724,-75230.577904
25123.511620,9326.594869,6957.935855,-73391.948708
25123.514158,-1628.453072,1480.411884,-75537.016103
25123.516701,-1036.288319,1480.411884,-76762.768900
25123.519244,-9326.594869,444.123565,-74924.139704
25123.521787,-5033.400406,2220.617826,-75690.235202
25123.524330,888.247130,1480.411884,-76303.111601
25123.526873,3849.070898,3552.988522,-75843.454302
25123.529416,-5329.482782,-148.041188,-74924.139704
25123.531959,4293.194464,2368.659014,-75383.797003
25123.534502,-1628.453072,7846.182985,-75843.454302
25123.537045,0.000000,8290.306550,-74924.139704
25123.539588,-6069.688724,1332.370696,-76149.892501
25123.542131,15396.283594,14063.912898,-74158.044206
25123.544674,-5625.565159,9474.636058,-74770.920605
25123.547217,16728.654289,10214.842000,-74770.920605
25123.549760,3552.988522,12139.377449,-73391.948708
25123.552303,5181.441594,15840.407159,-72932.291410
25123.554846,7994.224174,10510.924376,-75383.797003
25123.557389,-4885.359217,6809.894666,-74924.139704
25123.559932,6661.853478,5921.647536,-75690.235202
25123.562475,-1924.535449,6069.688724,-74311.263306
25123.565018,10214.842000,8142.265362,-75843.454302
25123.567562,4145.153275,7105.977043,-74617.701505
25123.570105,6217.729913,13175.665768,-73698.386908
25123.572648,148.041188,7846.182985,-74158.044206
25123.575191,4293.194464,6957.935855,-75077.358804
25123.577734,1332.370696,7994.224174,-74464.482406
25123.580277,11399.171507,11991.336260,-74464.482406
25123.582820,6957.935855,8882.471304,-76609.549800
25123.585363,6069.688724,8734.430116,-75537.016103
25123.587906,444.123565,5773.606348,-74158.044206
25123.590449,-5033.400406,9622.677246,-74158.044206
25123.592992,12139.377449,16136.489536,-76303.111601
25123.595535,13027.624579,19689.478057,-74924.139704
25123.598078,13471.748144,20133.601622,-73085.510509
25123.600621,-2516.700203,3849.070898,-75690.235202
25123.603164,3552.988522,3997.112087,-74464.482406
25123.605707,-14359.995275,1332.370696,-74464.482406
25123.608250,-2664.741391,-3256.906145,-77375.645298
25123.610793,2516.700203,-1184.329507,-76762.768900
25123.613336,15100.201217,4737.318029,-74158.044206
25123.615879,-2516.700203,4589.276840,-74311.263306
25123.618427,-3701.029710,5033.400406,-75077.358804
25123.620975,-15988.448347,5329.482782,-75383.797003
25123.623523,-4441.235652,7994.224174,-74924.139704
25123.626071,4589.276840,5477.523971,-76609.549800
25123.628619,10510.924376,-888.247130,-78448.178995
25123.631167,-1332.370696,1036.288319,-74158.044206
25123.633715,-2664.741391,4885.359217,-72319.415011
25123.636263,-11103.089130,5477.523971,-76915.987999
25123.638811,-5329.482782,5921.647536,-76915.987999
25123.641358,5033.400406,6809.894666,-73391.948708
25123.643906,5625.565159,2220.617826,-75230.577904
25123.646454,2960.823768,1184.329507,-78754.617194
25123.649002,-6513.812290,-1332.370696,-76915.987999
25123.651550,-7846.182985,1628.453072,-74464.482406
25123.654098,-740.205942,2664.741391,-76456.330700
25123.656646,0.000000,2960.823768,-76456.330700
25123.659194,-4145.153275,-592.164754,-75996.673402
25123.661742,7402.059420,3404.947333,-74924.139704
25123.664290,0.000000,8438.347739,-75690.235202
25123.666838,-296.082377,7994.224174,-76303.111601
25123.669386,-8290.306550,3997.112087,-74924.139704
25123.671934,7994.224174,13767.830521,-73545.167808
25123.674482,1628.453072,9326.594869,-75383.797003
25123.677030,12731.542202,10510.924376,-75077.358804
25123.679578,8142.265362,12879.583391,-73698.386908
25123.682126,5773.606348,15544.324782,-74158.044206
25123.684674,3849.070898,10510.924376,-74924.139704
25123.687222,-2220.617826,7846.182985,-75996.673402
25123.689770,2368.659014,5625.565159,-75690.235202
25123.692318,4441.235652,6217.729913,-74004.825107
25123.694865,9474.636058,7254.018232,-75383.797003
25123.697413,7105.977043,7698.141797,-75230.577904
25123.699961,2960.823768,11991.336260,-73698.386908
25123.702509,0.000000,8142.265362,-74311.263306
25123.705057,3701.029710,6217.729913,-75537.016103
25123.707605,7105.977043,9770.718434,-74004.825107
25123.710153,9326.594869,11103.089130,-73851.606007
25123.712701,8290.306550,10362.883188,-75690.235202
25123.715249,-1628.453072,6957.935855,-75537.016103
25123.717797,2072.576638,7550.100608,-73851.606007
25123.720348,-1776.494261,9918.759623,-74617.701505
25123.722900,13915.871710,18209.066173,-75996.673402
25123.725451,13767.830521,20429.683999,-76149.892501
25123.728003,9178.553681,18801.230927,-73238.729609
25123.730554,-592.164754,3552.988522,-74617.701505
25123.733106,-592.164754,4885.359217,-74004.825107
25123.735657,-11991.336260,-4145.153275,-77528.864398
25123.738209,-3404.947333,-3108.864956,-77835.302597
25123.740760,8586.388927,1036.288319,-76762.768900
25123.743312,12287.418637,5329.482782,-75230.577904
25123.745863,-5329.482782,4145.153275,-75996.673402
25123.748415,-7846.182985,4441.235652,-76149.892501
25123.750966,-11103.089130,7550.100608,-74311.263306
25123.753518,-2072.576638,7994.224174,-74770.920605
25123.756069,10066.800811,3256.906145,-77835.302597
25123.758621,1184.329507,-1036.288319,-76149.892501
25123.761172,888.247130,-1332.370696,-74924.139704
25123.763724,-7550.100608,6661.853478,-75077.358804
25123.766275,-11547.212695,9326.594869,-77375.645298
25123.768827,-444.123565,8734.430116,-75383.797003
25123.771378,4145.153275,4441.235652,-74311.263306
25123.773930,2960.823768,1480.411884,-76456.330700
25123.776481,1924.535449,-148.041188,-76609.549800
25123.779032,-8586.388927,592.164754,-74311.263306
25123.781584,-3404.947333,3849.070898,-73698.386908
25123.784135,-4737.318029,1628.453072,-76609.549800
25123.786687,-2960.823768,-888.247130,-76303.111601
25123.789238,5625.565159,-148.041188,-73238.729609
25123.791790,4885.359217,9326.594869,-74617.701505
25123.794341,-444.123565,8734.430116,-77375.645298
25123.796893,-10807.006753,3849.070898,-74617.701505
25123.799444,10510.924376,12139.377449,-72012.976812
25123.801996,-1776.494261,9030.512492,-75996.673402
25123.804547,14952.160028,8882.471304,-75996.673402
25123.807099,10807.006753,9622.677246,-75077.358804
25123.809650,10214.842000,16876.695478,-72932.291410
25123.812202,888.247130,11695.253884,-74617.701505
25123.814753,-1184.329507,10214.842000,-75230.577904
25123.817305,5181.441594,5329.482782,-75230.577904
25123.819856,4145.153275,6217.729913,-73851.606007
25123.822411,5033.400406,6217.729913,-75996.673402
25123.824965,11103.089130,8290.306550,-76762.768900
25123.827520,3997.112087,11695.253884,-75383.797003
25123.830074,-1628.453072,8882.471304,-73545.167808
25123.832629,3997.112087,5625.565159,-76609.549800
25123.835184,3997.112087,8290.306550,-74464.482406
25123.837738,10658.965565,11547.212695,-74924.139704
25123.840293,9474.636058,11547.212695,-75537.016103
25123.842847,0.000000,7105.977043,-75077.358804
25123.845402,-296.082377,6661.853478,-74004.825107
25123.847957,444.123565,10807.006753,-73851.606007
25123.850511,13027.624579,19541.436869,-74924.139704
25123.853066,13767.830521,21465.972318,-76303.111601
25123.855620,8438.347739,16876.695478,-74464.482406
25123.858175,5477.523971,2664.741391,-73698.386908
25123.860730,-9178.553681,2516.700203,-74617.701505
25123.863284,-12435.459826,-6957.935855,-77682.083497
25123.865839,-1924.535449,-1628.453072,-77682.083497
25123.868393,7994.224174,1924.535449,-75537.016103
25123.870948,13175.665768,6365.771101,-74770.920605
25123.873503,-6217.729913,2960.823768,-75996.673402
25123.876057,-9474.636058,3849.070898,-75077.358804
25123.878612,-8586.388927,8438.347739,-74004.825107
25123.881166,-148.041188,5921.647536,-76149.892501
25123.883721,11843.295072,3997.112087,-77682.083497
25123.886275,4441.235652,-4293.194464,-76609.549800
25123.888830,4589.276840,-1036.288319,-72166.195912
25123.891385,-12435.459826,4145.153275,-73391.948708
25123.893939,-5329.482782,5773.606348,-76915.987999
25123.896494,-7402.059420,6069.688724,-75690.235202
25123.899048,9770.718434,4293.194464,-72779.072310
25123.901603,-1332.370696,-444.123565,-77222.426198
25123.904152,740.205942,0.000000,-77528.864398
25123.906710,-5625.565159,2516.700203,-74770.920605
25123.909267,-7105.977043,2072.576638,-75383.797003
25123.911825,-6217.729913,2220.617826,-77222.426198
25123.914382,-2664.741391,-2664.741391,-76915.987999
25123.916940,18357.107362,6513.812290,-73545.167808
25123.919497,-2072.576638,8586.388927,-75690.235202
25123.922055,-592.164754,4589.276840,-78141.740796
25123.924612,-2664.741391,4589.276840,-74004.825107
25123.927170,2516.700203,12583.501014,-72932.291410
25123.929728,5921.647536,7994.224174,-77375.645298
25123.932285,13471.748144,9622.677246,-75537.016103
25123.934843,13915.871710,14952.160028,-72319.415011
25123.937400,1332.370696,12583.501014,-73851.606007
25123.939958,5921.647536,12435.459826,-75383.797003
25123.942515,-7402.059420,5329.482782,-75537.016103
25123.945073,6957.935855,7846.182985,-74617.701505
25123.947630,7698.141797,6957.935855,-74004.825107
25123.950188,7846.182985,9178.553681,-75383.797003
25123.952745,9770.718434,7698.141797,-75690.235202
25123.955303,-5033.400406,9030.512492,-73851.606007
25123.957860,5181.441594,8438.347739,-74004.825107
25123.960418,-3552.988522,5625.565159,-75843.454302
25123.962975,12731.542202,12287.418637,-74617.701505
25123.965533,5921.647536,10807.006753,-74311.263306
25123.968091,4885.359217,7402.059420,-75690.235202
25123.970648,1776.494261,6513.812290,-74617.701505
25123.973206,-2368.659014,8290.306550,-73238.729609
25123.975763,12583.501014,20577.725188,-74158.044206
25123.978321,14211.954086,24278.754898,-75843.454302
25123.980878,4293.194464,15692.365970,-76303.111601
25123.983436,5921.647536,5181.441594,-73698.386908
25123.985993,-6957.935855,3849.070898,-72779.072310
25123.988551,-12435.459826,-9030.512492,-78141.740796
25123.991108,-6957.935855,-3552.988522,-77988.521696
25123.993666,13471.748144,2368.659014,-75230.577904
25123.996223,9622.677246,7698.141797,-75077.358804
25123.998781,-3849.070898,3997.112087,-75996.673402
25124.001338,-10362.883188,2960.823768,-75230.577904
25124.003896,-10214.842000,6809.894666,-73545.167808
25124.006427,1924.535449,8142.265362,-74770.920605
25124.008958,5773.606348,3997.112087,-77682.083497
25124.011489,4145.153275,-1628.453072,-75843.454302
25124.014020,1628.453072,1776.494261,-72932.291410
25124.016551,-15988.448347,3701.029710,-75383.797003
25124.019081,-296.082377,10362.883188,-77222.426198
25124.021612,-11399.171507,3552.988522,-77069.207099
25124.024143,15248.242405,6069.688724,-75383.797003
25124.026674,-5329.482782,-1036.288319,-77835.302597
25124.029205,5625.565159,-296.082377,-78601.398095
25124.031736,-7254.018232,1628.453072,-74004.825107
25124.034267,-7254.018232,1776.494261,-74464.482406
25124.036798,-9918.759623,-1776.494261,-77222.426198
25124.039329,6661.853478,1036.288319,-75383.797003
25124.041860,14359.995275,12435.459826,-72932.291410
25124.044390,-5921.647536,7994.224174,-75996.673402
25124.046921,1036.288319,3552.988522,-77528.864398
25124.049452,-2220.617826,10362.883188,-72166.195912
25124.051983,1776.494261,10066.800811,-74464.482406
25124.054514,11991.336260,9030.512492,-76609.549800
25124.057045,10807.006753,9474.636058,-75077.358804
25124.059576,15988.448347,16580.613101,-72319.415011
25124.062107,-1332.370696,10510.924376,-74924.139704
25124.064638,148.041188,9770.718434,-76149.892501
25124.067169,-5033.400406,5773.606348,-75230.577904
25124.069699,6217.729913,7698.141797,-74311.263306
25124.072230,9178.553681,7994.224174,-76149.892501
25124.074761,7254.018232,5625.565159,-77528.864398
25124.077292,3552.988522,9474.636058,-74464.482406
25124.079823,1776.494261,9770.718434,-72932.291410
25124.082354,-1776.494261,2812.782580,-75383.797003
25124.084885,7402.059420,11695.253884,-74311.263306
25124.087416,7105.977043,10955.047942,-75690.235202
25124.089947,10510.924376,11251.130318,-75537.016103
25124.092478,2664.741391,6069.688724,-75230.577904
25124.095008,-1480.411884,6069.688724,-73545.167808
25124.097539,8142.265362,14804.118840,-73391.948708
25124.100070,14656.077652,24130.713709,-74158.044206
25124.102601,4145.153275,21465.972318,-76303.111601
25124.105132,5477.523971,9326.594869,-74311.263306
25124.107670,3552.988522,7994.224174,-72625.853210
25124.110208,-16876.695478,-8734.430116,-76609.549800
25124.112746,-1776.494261,-9030.512492,-78294.959896
25124.115285,2072.576638,-148.041188,-75843.454302
25124.117823,17172.777854,6217.729913,-76149.892501
25124.120361,-7105.977043,5033.400406,-75996.673402
25124.122899,-4441.235652,4441.235652,-75383.797003
25124.125437,-12731.542202,6809.894666,-74004.825107
25124.127975,-2368.659014,8290.306550,-74464.482406
25124.130513,2812.782580,6365.771101,-77835.302597
25124.133052,10214.842000,-592.164754,-78294.959896
25124.135590,4885.359217,-2220.617826,-75690.235202
25124.138128,-10066.800811,3552.988522,-74770.920605
25124.140666,-1184.329507,7105.977043,-78448.178995
25124.143204,-11399.171507,4441.235652,-77069.207099
25124.145742,11103.089130,7994.224174,-74004.825107
25124.148280,-4145.153275,-148.041188,-75383.797003
25124.150819,6513.812290,444.123565,-78448.178995
25124.153357,-5921.647536,-740.205942,-75996.673402
25124.155895,-8882.471304,888.247130,-74924.139704
25124.158433,-11547.212695,-2812.782580,-77682.083497
25124.160971,6809.894666,1628.453072,-76456.330700
25124.163509,13175.665768,10955.047942,-74464.482406
25124.166047,-1332.370696,10510.924376,-75230.577904
25124.168586,-1036.288319,3552.988522,-77682.083497
25124.171124,3404.947333,13027.624579,-72166.195912
25124.173662,-9030.512492,10510.924376,-72472.634111
25124.176200,16136.489536,8734.430116,-76456.330700
25124.178738,9770.718434,9770.718434,-74770.920605
25124.181276,14656.077652,15692.365970,-72319.415011
25124.183814,2072.576638,10658.965565,-75537.016103
25124.186353,444.123565,9326.594869,-75537.016103
25124.188891,-3997.112087,6513.812290,-76303.111601
25124.191429,2072.576638,9178.553681,-73698.386908
25124.193967,13619.789333,7846.182985,-77069.207099
25124.196505,9770.718434,8882.471304,-75996.673402
25124.199043,1036.288319,7105.977043,-74004.825107
25124.201581,2368.659014,7698.141797,-72779.072310
25124.204120,-1628.453072,5477.523971,-74770.920605
25124.206658,7402.059420,11251.130318,-74770.920605
25124.209202,8290.306550,11991.336260,-75077.358804
25124.211747,8586.388927,9474.636058,-75996.673402
25124.214291,3849.070898,7846.182985,-75383.797003
25124.216836,3552.988522,8586.388927,-72932.291410
25124.219380,7105.977043,18061.024985,-72625.853210
25124.221925,11991.336260,25463.084405,-74158.044206
25124.224469,-740.205942,15248.242405,-76149.892501
25124.227014,9770.718434,9326.594869,-73545.167808
25124.229558,-4293.194464,4293.194464,-72932.291410
25124.232103,-10214.842000,-10214.842000,-77835.302597
25124.234647,-7254.018232,-6365.771101,-77682.083497
25124.237192,9474.636058,3997.112087,-74924.139704
25124.239736,7846.182985,6661.853478,-76456.330700
25124.242281,-740.205942,4441.235652,-76303.111601
25124.244825,-10214.842000,4145.153275,-74311.263306
25124.247370,-9030.512492,7254.018232,-74004.825107
25124.249914,148.041188,6513.812290,-75230.577904
25124.252459,3552.988522,4293.194464,-77069.207099
25124.255003,3849.070898,-1184.329507,-78141.740796
25124.257548,-2220.617826,1184.329507,-72932.291410
25124.260092,-4737.318029,2812.782580,-74770.920605
25124.262637,-11547.212695,6069.688724,-77222.426198
25124.265181,1036.288319,4885.359217,-75996.673402
25124.267726,2516.700203,4293.194464,-74617.701505
25124.270270,3849.070898,1332.370696,-77222.426198
25124.272815,-1924.535449,-1036.288319,-76915.987999
25124.275360,-3108.864956,740.205942,-74770.920605
25124.277904,-13915.871710,-3108.864956,-75843.454302
25124.280449,-148.041188,-1184.329507,-76915.987999
25124.282993,12879.583391,9770.718434,-73851.606007
25124.285538,3404.947333,12731.542202,-73698.386908
25124.288082,-2368.659014,6661.853478,-75996.673402
25124.290627,6217.729913,9770.718434,-74004.825107
25124.293171,-9030.512492,11251.130318,-72779.072310
25124.295716,15248.242405,6513.812290,-76609.549800
25124.298260,4737.318029,6513.812290,-76609.549800
25124.300805,16432.571912,13767.830521,-73391.948708
25124.303349,2072.576638,10214.842000,-74924.139704
25124.305894,3552.988522,10362.883188,-75537.016103
25124.308438,-4885.359217,7550.100608,-75230.577904
25124.310988,444.123565,9474.636058,-73698.386908
25124.313537,10362.883188,7994.224174,-75383.797003
25124.316086,12879.583391,8290.306550,-77835.302597
25124.318635,2812.782580,7994.224174,-75077.358804
25124.321185,4737.318029,7105.977043,-72472.634111
25124.323734,-3701.029710,5033.400406,-74770.920605
25124.326283,6957.935855,10066.800811,-74770.920605
25124.328833,7254.018232,12139.377449,-74311.263306
25124.331382,10510.924376,10807.006753,-74617.701505
25124.333931,4589.276840,7550.100608,-75383.797003
25124.336481,4145.153275,8438.347739,-73698.386908
25124.339030,9770.718434,18209.066173,-72625.853210
25124.341579,3256.906145,22798.343014,-75230.577904
25124.344129,1776.494261,14063.912898,-76456.330700
25124.346678,6069.688724,10658.965565,-73238.729609
25124.349227,-4293.194464,2368.659014,-73851.606007
25124.351777,-6365.771101,-9622.677246,-78294.959896
25124.354326,-7402.059420,-7254.018232,-77528.864398
25124.356875,5625.565159,3701.029710,-74617.701505
25124.359424,6661.853478,6513.812290,-75996.673402
25124.361974,-592.164754,4737.318029,-75843.454302
25124.364523,-9178.553681,4293.194464,-74617.701505
25124.367072,-8142.265362,7550.100608,-73545.167808
25124.369622,1184.329507,6217.729913,-75690.235202
25124.372171,7254.018232,1924.535449,-77375.645298
25124.374720,7254.018232,-444.123565,-76303.111601
25124.377270,-5625.565159,-296.082377,-74004.825107
25124.379819,-1332.370696,3849.070898,-75996.673402
25124.382368,-9178.553681,3256.906145,-77375.645298
25124.384918,2812.782580,4589.276840,-73698.386908
25124.387467,-444.123565,3256.906145,-75077.358804
25124.390016,4737.318029,1332.370696,-77528.864398
25124.392566,-4441.235652,-1036.288319,-75690.235202
25124.395115,-10658.965565,-2220.617826,-75383.797003
25124.397664,-10214.842000,-3552.988522,-76762.768900
25124.400213,7550.100608,4589.276840,-75383.797003
25124.402763,11991.336260,12287.418637,-74464.482406
25124.405312,-4885.359217,9178.553681,-75996.673402
25124.407861,5773.606348,4885.359217,-76762.768900
25124.410411,-2220.617826,13323.706956,-73085.510509
25124.412964,8882.471304,7994.224174,-74311.263306
25124.415517,5625.565159,7846.182985,-75843.454302
25124.418071,15248.242405,10955.047942,-74770.920605
25124.420624,9030.512492,13619.789333,-72932.291410
25124.423177,2664.741391,11991.336260,-74617.701505
25124.425731,-1036.288319,8438.347739,-76303.111601
25124.428284,-296.082377,8438.347739,-75077.358804
25124.430837,6513.812290,7994.224174,-73698.386908
25124.433391,13471.748144,7402.059420,-77222.426198
25124.435944,2960.823768,7105.977043,-77375.645298
25124.438498,11547.212695,8734.430116,-74464.482406
25124.441051,-5477.523971,1776.494261,-74770.920605
25124.443604,6957.935855,9474.636058,-74158.044206
25124.446158,148.041188,9326.594869,-74617.701505
25124.448711,11251.130318,13471.748144,-74158.044206
25124.451264,2664.741391,8438.347739,-75230.577904
25124.453818,6661.853478,8438.347739,-75230.577904
25124.456371,10510.924376,17616.901420,-72779.072310
25124.458924,5181.441594,23834.631332,-73085.510509
25124.461478,-740.205942,13767.830521,-77069.207099
25124.464031,6661.853478,10955.047942,-74158.044206
25124.466584,-1036.288319,4885.359217,-72472.634111
25124.469138,-5773.606348,-9770.718434,-76915.987999
25124.471691,-8142.265362,-8142.265362,-78141.740796
25124.474244,9178.553681,2516.700203,-75843.454302
25124.476798,1776.494261,5477.523971,-76456.330700
25124.479351,296.082377,4145.153275,-76456.330700
25124.481904,-10214.842000,4737.318029,-75077.358804
25124.484458,-5921.647536,6957.935855,-73391.948708
25124.487011,-1184.329507,6809.894666,-75383.797003
25124.489564,4885.359217,3256.906145,-78754.617194
25124.492118,5181.441594,1184.329507,-77375.645298
25124.494671,-2220.617826,2072.576638,-72472.634111
25124.497225,-2516.700203,4589.276840,-76303.111601
25124.499778,-6809.894666,4441.235652,-76762.768900
25124.502331,148.041188,3997.112087,-73698.386908
25124.504885,-296.082377,3701.029710,-74158.044206
25124.507438,2368.659014,592.164754,-76303.111601
25124.509991,-1924.535449,-740.205942,-77222.426198
25124.512545,-8882.471304,-1628.453072,-75383.797003
25124.515101,-6365.771101,-3849.070898,-76762.768900
25124.517658,7402.059420,5181.441594,-75690.235202
25124.520215,10214.842000,11547.212695,-74311.263306
25124.522772,-6365.771101,9770.718434,-75690.235202
25124.525329,8882.471304,6809.894666,-75690.235202
25124.527885,-5329.482782,14063.912898,-74158.044206
25124.530442,6809.894666,9770.718434,-74617.701505
25124.532999,9770.718434,8142.265362,-75230.577904
25124.535556,14952.160028,11251.130318,-74311.263306
25124.538113,6661.853478,11547.212695,-74464.482406
25124.540670,3849.070898,10658.965565,-74770.920605
25124.543226,-3256.906145,8290.306550,-76456.330700
25124.545783,1480.411884,9622.677246,-74158.044206
25124.548340,3849.070898,10510.924376,-73238.729609
25124.550897,13323.706956,9918.759623,-75230.577904
25124.553454,2516.700203,6957.935855,-76762.768900
25124.556010,4441.235652,8438.347739,-72932.291410
25124.558567,-1628.453072,6069.688724,-74311.263306
25124.561124,4589.276840,9178.553681,-75996.673402
25124.563681,7698.141797,10066.800811,-74617.701505
25124.566238,8586.388927,11251.130318,-74004.825107
25124.568795,6069.688724,9178.553681,-74924.139704
25124.571351,6661.853478,10510.924376,-76149.892501
25124.573908,11103.089130,20429.683999,-72319.415011
25124.576465,-1924.535449,18801.230927,-74311.263306
25124.579022,5329.482782,12435.459826,-75996.673402
25124.581579,2812.782580,10066.800811,-72779.072310
25124.584135,-5477.523971,-2960.823768,-74311.263306
25124.586692,-6809.894666,-10214.842000,-79061.055394
25124.589249,-2220.617826,-5181.441594,-77988.521696
25124.591806,8142.265362,3552.988522,-75077.358804
25124.594363,444.123565,4589.276840,-75537.016103
25124.596919,-4589.276840,4737.318029,-75230.577904
25124.599476,-6957.935855,4441.235652,-73851.606007
25124.602033,-5773.606348,7550.100608,-73851.606007
25124.604590,2368.659014,6069.688724,-76303.111601
25124.607147,4589.276840,1628.453072,-77069.207099
25124.609704,2072.576638,-2368.659014,-76609.549800
25124.612260,-2960.823768,4737.318029,-73545.167808
25124.614817,-2220.617826,5921.647536,-76303.111601
25124.617377,-6217.729913,3997.112087,-76456.330700
25124.619937,1924.535449,5625.565159,-73085.510509
25124.622497,-1628.453072,296.082377,-76149.892501
25124.625057,2664.741391,-1628.453072,-78141.740796
25124.627617,-7994.224174,-1332.370696,-75690.235202
25124.630177,-10214.842000,-4441.235652,-75843.454302
25124.632737,1924.535449,-444.123565,-76303.111601
25124.635297,6217.729913,8586.388927,-75230.577904
25124.637857,888.247130,10214.842000,-75230.577904
25124.640417,-888.247130,5477.523971,-75537.016103
25124.642977,5181.441594,15692.365970,-73085.510509
25124.645537,-148.041188,9770.718434,-74004.825107
25124.648097,12583.501014,8734.430116,-73698.386908
25124.650657,8586.388927,9770.718434,-74311.263306
25124.653218,11547.212695,11547.212695,-74770.920605
25124.655778,2516.700203,10807.006753,-74311.263306
25124.658338,2812.782580,8734.430116,-74311.263306
25124.660898,1924.535449,7846.182985,-75230.577904
25124.663458,1924.535449,9622.677246,-72779.072310
25124.666018,4441.235652,10362.883188,-73698.386908
25124.668578,14656.077652,9178.553681,-75383.797003
25124.671138,-2072.576638,4589.276840,-75230.577904
25124.673698,9326.594869,7402.059420,-73545.167808
25124.676258,-3404.947333,4441.235652,-74617.701505
25124.678818,9030.512492,12583.501014,-75230.577904
25124.681378,6069.688724,11547.212695,-74311.263306
25124.683938,6661.853478,9030.512492,-75230.577904
25124.686498,12287.418637,11695.253884,-75690.235202
25124.689058,8290.306550,19837.519246,-72472.634111
25124.691618,1776.494261,21910.095883,-73391.948708
25124.694178,-444.123565,13027.624579,-75383.797003
25124.696738,7105.977043,13027.624579,-73851.606007
25124.699298,-11399.171507,-740.205942,-74158.044206
25124.701858,-2664.741391,-10066.800811,-77528.864398
25124.704418,-2960.823768,-6809.894666,-78601.398095
25124.706978,10510.924376,3849.070898,-76456.330700
25124.709538,-4589.276840,5625.565159,-76303.111601
25124.712098,-888.247130,5033.400406,-75843.454302
25124.714658,-10066.800811,3997.112087,-74617.701505
25124.717218,-2072.576638,7254.018232,-72932.291410
25124.719780,-592.164754,3997.112087,-76762.768900
25124.722342,5625.565159,1924.535449,-77682.083497
25124.724904,3404.947333,0.000000,-76609.549800
25124.727466,-6957.935855,5329.482782,-74004.825107
25124.730028,148.041188,4589.276840,-78141.740796
25124.732590,-7254.018232,2960.823768,-75843.454302
25124.735151,3256.906145,4589.276840,-74464.482406
25124.737713,-5921.647536,1036.288319,-74924.139704
25124.740275,5181.441594,-148.041188,-78141.740796
25124.742837,-10807.006753,-5921.647536,-75843.454302
25124.745399,-4293.194464,-2812.782580,-74770.920605
25124.747961,6365.771101,3552.988522,-76149.892501
25124.750523,7402.059420,11103.089130,-76149.892501
25124.753085,-3108.864956,9326.594869,-75383.797003
25124.755647,6069.688724,7698.141797,-75537.016103
25124.758209,-1332.370696,11843.295072,-74924.139704
25124.760771,8586.388927,9178.553681,-74464.482406
25124.763333,2812.782580,7550.100608,-75537.016103
25124.765894,16432.571912,13027.624579,-74311.263306
25124.768456,1628.453072,10955.047942,-74770.920605
25124.771018,8586.388927,11547.212695,-74158.044206
25124.773580,-3701.029710,8882.471304,-74770.920605
25124.776142,2960.823768,9030.512492,-74004.825107
25124.778704,3997.112087,7846.182985,-74617.701505
25124.781266,8882.471304,7994.224174,-75690.235202
25124.783828,5329.482782,9474.636058,-75383.797003
25124.786390,5625.565159,6513.812290,-74770.920605
25124.788952,-444.123565,6217.729913,-73391.948708
25124.791514,5181.441594,8438.347739,-75077.358804
25124.794076,6365.771101,10362.883188,-74924.139704
25124.796638,5921.647536,9770.718434,-73698.386908
25124.799199,9918.759623,10066.800811,-74311.263306
25124.801761,9918.759623,14063.912898,-74617.701505
25124.804323,5477.523971,23538.548956,-73238.729609
25124.806885,-2960.823768,14359.995275,-76456.330700
25124.809447,8142.265362,13175.665768,-75383.797003
25124.812009,-7846.182985,4293.194464,-74464.482406
25124.814571,888.247130,-9326.594869,-76456.330700
25124.817133,-8290.306550,-8438.347739,-77528.864398
25124.819695,9622.677246,1776.494261,-75537.016103
25124.822230,-2960.823768,6365.771101,-75383.797003
25124.824765,296.082377,4737.318029,-75537.016103
25124.827300,-11251.130318,5033.400406,-75230.577904
25124.829834,-3256.906145,6957.935855,-73698.386908
25124.832369,-1036.288319,4441.235652,-75690.235202
25124.834904,6217.729913,5329.482782,-75383.797003
25124.837439,4589.276840,3404.947333,-76609.549800
25124.839974,0.000000,4737.318029,-73698.386908
25124.842509,-8586.388927,3552.988522,-76149.892501
25124.845044,-3849.070898,2368.659014,-76303.111601
25124.847579,-1776.494261,1628.453072,-74770.920605
25124.850114,1628.453072,4293.194464,-74924.139704
25124.852649,-1480.411884,-1628.453072,-78294.959896
25124.855184,-7550.100608,-4145.153275,-76762.768900
25124.857719,-3256.906145,-3849.070898,-75230.577904
25124.860254,1924.535449,3849.070898,-75230.577904
25124.862789,9178.553681,10807.006753,-75690.235202
25124.865323,-7254.018232,9770.718434,-75690.235202
25124.867858,11695.253884,9178.553681,-74924.139704
25124.870393,-4441.235652,11547.212695,-74004.825107
25124.872928,9622.677246,8586.388927,-75690.235202
25124.875463,5625.565159,8290.306550,-75230.577904
25124.877998,15544.324782,13323.706956,-74158.044206
25124.880533,3997.112087,11695.253884,-75077.358804
25124.883068,6809.894666,11547.212695,-74770.920605
25124.885603,-2072.576638,8734.430116,-74770.920605
25124.888138,2516.700203,7994.224174,-75230.577904
25124.890673,1628.453072,6661.853478,-74770.920605
25124.893208,11991.336260,11991.336260,-74617.701505
25124.895743,6069.688724,6513.812290,-76456.330700
25124.898278,2664.741391,6069.688724,-73391.948708
25124.900812,5033.400406,7254.018232,-73391.948708
25124.903347,592.164754,6957.935855,-76149.892501
25124.905882,9326.594869,12435.459826,-75230.577904
25124.908417,6661.853478,10362.883188,-73085.510509
25124.910952,10214.842000,10658.965565,-74924.139704
25124.913487,11695.253884,16728.654289,-73545.167808
25124.916022,1480.411884,20873.807564,-72932.291410
25124.918557,444.123565,13619.789333,-75690.235202
25124.921092,2072.576638,12731.542202,-73851.606007
25124.923632,-7105.977043,-888.247130,-75383.797003
25124.926174,-296.082377,-8438.347739,-76609.549800
25124.928716,-6957.935855,-8142.265362,-76609.549800
25124.931258,9918.759623,592.164754,-75537.016103
25124.933800,-4737.318029,5773.606348,-75537.016103
25124.936342,888.247130,5625.565159,-75230.577904
25124.938885,-12583.501014,5033.400406,-74770.920605
25124.941427,740.205942,7550.100608,-74158.044206
25124.943969,-740.205942,2516.700203,-76609.549800
25124.946511,10510.924376,3256.906145,-76303.111601
25124.949053,-4441.235652,-1332.370696,-76762.768900
25124.951595,1776.494261,5181.441594,-74158.044206
25124.954137,-10362.883188,1480.411884,-77069.207099
25124.956679,296.082377,3997.112087,-75690.235202
25124.959221,-4293.194464,3108.864956,-73085.510509
25124.961763,1924.535449,148.041188,-77222.426198
25124.964305,-5033.400406,-888.247130,-78294.959896
25124.966848,-7698.141797,-6661.853478,-75843.454302
25124.969390,-2664.741391,-1776.494261,-75077.358804
25124.971932,5329.482782,5921.647536,-75383.797003
25124.974474,2220.617826,10658.965565,-75996.673402
25124.977016,-2812.782580,7698.141797,-74770.920605
25124.979558,9622.677246,15248.242405,-73545.167808
25124.982100,-592.164754,9622.677246,-74311.263306
25124.984642,11399.171507,7550.100608,-75230.577904
25124.987184,5921.647536,8586.388927,-74770.920605
25124.989726,13323.706956,13175.665768,-74617.701505
25124.992268,1776.494261,11103.089130,-75230.577904
25124.994811,5329.482782,11103.089130,-74924.139704
25124.997353,-1628.453072,7550.100608,-74311.263306
25124.999895,1480.411884,8290.306550,-75077.358804
25125.002437,6513.812290,10955.047942,-73085.510509
25125.004979,5329.482782,7846.182985,-74617.701505
25125.007521,5773.606348,8290.306550,-74004.825107
25125.010063,1184.329507,7105.977043,-72319.415011
25125.012605,2516.700203,7402.059420,-74311.263306
25125.015147,8586.388927,9918.759623,-74924.139704
25125.017689,4441.235652,9622.677246,-74617.701505
25125.020232,13175.665768,13027.624579,-73085.510509
25125.022774,9770.718434,14211.954086,-75843.454302
25125.025293,6217.729913,22206.178260,-74158.044206
25125.027812,-2960.823768,13915.871710,-74617.701505
25125.030331,5773.606348,14359.995275,-74770.920605
25125.032851,-4737.318029,5625.565159,-76149.892501
25125.035370,-888.247130,-8734.430116,-77528.864398
25125.037889,-7550.100608,-9030.512492,-77375.645298
25125.040409,4293.194464,-3108.864956,-76303.111601
25125.042928,-592.164754,5329.482782,-76149.892501
25125.045447,-1924.535449,4589.276840,-76149.892501
25125.047967,-9622.677246,6661.853478,-74311.263306
25125.050486,-2812.782580,6513.812290,-73698.386908
25125.053005,-2368.659014,5181.441594,-75383.797003
25125.055524,7254.018232,3997.112087,-75537.016103
25125.058044,-1480.411884,-2516.700203,-75996.673402
25125.060563,-444.123565,4441.235652,-73851.606007
25125.063082,-3701.029710,6809.894666,-75996.673402
25125.065602,-8142.265362,592.164754,-76915.987999
25125.068121,1776.494261,5625.565159,-73698.386908
25125.070640,-3701.029710,-740.205942,-75230.577904
25125.073160,-296.082377,-148.041188,-78601.398095
25125.075679,-8290.306550,-6365.771101,-77835.302597
25125.078198,-3108.864956,-2220.617826,-74924.139704
25125.080717,7846.182985,5921.647536,-74617.701505
25125.083237,-4589.276840,8734.430116,-76456.330700
25125.085756,1036.288319,8882.471304,-74311.263306
25125.088275,5329.482782,15100.201217,-72166.195912
25125.090795,2072.576638,12435.459826,-75537.016103
25125.093314,9474.636058,7550.100608,-75996.673402
25125.095833,9474.636058,8586.388927,-73391.948708
25125.098353,7846.182985,11103.089130,-74924.139704
25125.100872,5181.441594,11843.295072,-76149.892501
25125.103391,3701.029710,10658.965565,-74158.044206
25125.105910,592.164754,8882.471304,-75383.797003
25125.108430,4589.276840,6513.812290,-74311.263306
25125.110949,2368.659014,5773.606348,-76149.892501
25125.113468,9030.512492,12879.583391,-75690.235202
25125.115988,4145.153275,7846.182985,-74617.701505
25125.118507,2664.741391,8438.347739,-74617.701505
25125.121026,5181.441594,7105.977043,-75230.577904
25125.123546,4145.153275,7846.182985,-75077.358804
25125.126076,11251.130318,13175.665768,-73545.167808
25125.128606,10214.842000,13175.665768,-73238.729609
25125.131136,9918.759623,16728.654289,-74464.482406
25125.133666,5329.482782,19985.560434,-73698.386908
25125.136196,-3108.864956,12731.542202,-74464.482406
25125.138726,8142.265362,13175.665768,-73545.167808
25125.141256,-11695.253884,3108.864956,-75230.577904
25125.143787,4145.153275,-5921.647536,-76609.549800
25125.146317,-8586.388927,-7846.182985,-75230.577904
25125.148847,12435.459826,1332.370696,-75690.235202
25125.151377,-8142.265362,3552.988522,-77069.207099
25125.153907,1924.535449,6661.853478,-74617.701505
25125.156437,-14063.912898,4885.359217,-75690.235202
25125.158967,148.041188,7698.141797,-73391.948708
25125.161497,-5921.647536,3701.029710,-75383.797003
25125.164028,6809.894666,3552.988522,-77835.302597
25125.166558,2516.700203,3552.988522,-74617.701505
25125.169088,-3256.906145,3256.906145,-74770.920605
25125.171618,-3701.029710,4589.276840,-76303.111601
25125.174148,-6661.853478,1184.329507,-75077.358804
25125.176678,-1036.288319,2220.617826,-72779.072310
25125.179208,296.082377,1776.494261,-75077.358804
25125.181738,-8882.471304,-5477.523971,-79367.493593
25125.184269,-444.123565,-4441.235652,-76303.111601
25125.186799,-592.164754,2812.782580,-73851.606007
25125.189329,6957.935855,7846.182985,-76609.549800
25125.191859,-9474.636058,7402.059420,-76456.330700
25125.194389,9474.636058,9770.718434,-73698.386908
25125.196919,1184.329507,15692.365970,-74158.044206
25125.199449,7105.977043,9474.636058,-76609.549800
25125.201979,9474.636058,8290.306550,-75383.797003
25125.204510,8438.347739,9918.759623,-72472.634111
25125.207040,3849.070898,11547.212695,-75077.358804
25125.209570,4145.153275,11695.253884,-74924.139704
25125.212100,1480.411884,9770.718434,-75383.797003
25125.214630,5329.482782,9178.553681,-73545.167808
25125.217160,296.082377,4885.359217,-74770.920605
25125.219690,3997.112087,8142.265362,-75996.673402
25125.222220,7402.059420,8438.347739,-75843.454302
25125.224751,5181.441594,8882.471304,-72779.072310
25125.227290,3701.029710,6809.894666,-73391.948708
25125.229829,5477.523971,9178.553681,-73698.386908
25125.232368,5477.523971,10214.842000,-74924.139704
25125.234908,11103.089130,13471.748144,-73851.606007
25125.237447,10362.883188,18061.024985,-74158.044206
25125.239986,5329.482782,18949.272115,-75537.016103
25125.242526,-1332.370696,12879.583391,-75230.577904
25125.245065,5329.482782,12139.377449,-73238.729609
25125.247604,-6957.935855,4737.318029,-75843.454302
25125.250144,-296.082377,-9622.677246,-79367.493593
25125.252683,-7698.141797,-7550.100608,-77222.426198
25125.255222,8142.265362,444.123565,-75996.673402
25125.257762,-5329.482782,4589.276840,-76456.330700
25125.260301,444.123565,5033.400406,-75383.797003
25125.262840,-12435.459826,6365.771101,-74004.825107
25125.265379,-1776.494261,7254.018232,-73545.167808
25125.267919,-2960.823768,3404.947333,-75996.673402
25125.270458,12879.583391,3256.906145,-76762.768900
25125.272997,-5477.523971,-1776.494261,-77222.426198
25125.275537,6069.688724,6809.894666,-73391.948708
25125.278076,-8290.306550,1628.453072,-76762.768900
25125.280615,-4145.153275,2516.700203,-75690.235202
25125.283155,-1332.370696,2368.659014,-73085.510509
25125.285694,1184.329507,0.000000,-75537.016103
25125.288233,-5033.400406,-5625.565159,-79214.274493
25125.290773,-4145.153275,-4885.359217,-76609.549800
25125.293312,3849.070898,2960.823768,-74158.044206
25125.295851,3997.112087,6217.729913,-76149.892501
25125.298390,-8142.265362,5921.647536,-76762.768900
25125.300930,10510.924376,11843.295072,-73391.948708
25125.303469,592.164754,14804.118840,-73698.386908
25125.306008,11251.130318,8882.471304,-76609.549800
25125.308548,5329.482782,8438.347739,-75690.235202
25125.311087,11843.295072,11399.171507,-72932.291410
25125.313626,4145.153275,12287.418637,-74311.263306
25125.316166,4441.235652,11251.130318,-75537.016103
25125.318705,148.041188,9474.636058,-74311.263306
25125.321244,3256.906145,10807.006753,-73238.729609
25125.323784,5181.441594,7550.100608,-74770.920605
25125.326323,3256.906145,5477.523971,-76456.330700
25125.328869,5921.647536,9918.759623,-74924.139704
25125.331416,3997.112087,9326.594869,-73698.386908
25125.333962,5921.647536,8734.430116,-74617.701505
25125.336509,6957.935855,9770.718434,-75383.797003
25125.339055,7254.018232,10510.924376,-74158.044206
25125.341601,10807.006753,14508.036463,-73238.729609
25125.344148,10807.006753,18061.024985,-73545.167808
25125.346694,1628.453072,19985.560434,-75383.797003
25125.349241,1776.494261,11251.130318,-74770.920605
25125.351787,5329.482782,13915.871710,-72319.415011
25125.354334,-10066.800811,296.082377,-76609.549800
25125.356880,-888.247130,-8142.265362,-78294.959896
25125.359426,-1924.535449,-6217.729913,-75690.235202
25125.361973,9622.677246,1924.535449,-76303.111601
25125.364519,-6661.853478,4441.235652,-76762.768900
25125.367066,-444.123565,5625.565159,-75383.797003
25125.369612,-12435.459826,5921.647536,-73851.606007
25125.372159,-740.205942,7105.977043,-73698.386908
25125.374705,-3701.029710,2220.617826,-76609.549800
25125.377251,8142.265362,3108.864956,-76149.892501
25125.379798,-1776.494261,3701.029710,-74770.920605
25125.382344,740.205942,5181.441594,-74770.920605
25125.384891,-9326.594869,2516.700203,-77682.083497
25125.387437,-4737.318029,2664.741391,-75383.797003
25125.389984,-1480.411884,888.247130,-73698.386908
25125.392530,-1924.535449,444.123565,-76915.987999
25125.395076,-3108.864956,-7254.018232,-79673.931792
25125.397623,-1184.329507,-2220.617826,-75690.235202
25125.400169,7254.018232,7254.018232,-74770.920605
25125.402716,-7105.977043,8882.471304,-75843.454302
25125.405262,-3701.029710,4589.276840,-76149.892501
25125.407809,12583.501014,18357.107362,-72012.976812
25125.410355,1036.288319,12435.459826,-74158.044206
25125.412901,17172.777854,9474.636058,-76456.330700
25125.415448,1036.288319,7105.977043,-74464.482406
25125.417994,12287.418637,13619.789333,-72932.291410
25125.420541,3108.864956,9474.636058,-75690.235202
25125.423087,2516.700203,9622.677246,-76609.549800
25125.425634,8290.306550,10066.800811,-73851.606007
25125.428180,4589.276840,9030.512492,-73391.948708
25125.430733,5181.441594,5329.482782,-75230.577904
25125.433285,-1184.329507,6809.894666,-76762.768900
25125.435838,9178.553681,11399.171507,-74924.139704
25125.438391,1628.453072,7402.059420,-75077.358804
25125.440943,6069.688724,11103.089130,-74311.263306
25125.443496,7846.182985,10658.965565,-74311.263306
25125.446049,5773.606348,10658.965565,-74464.482406
25125.448601,15692.365970,17912.983796,-73391.948708
25125.451154,3701.029710,19541.436869,-74770.920605
25125.453706,1924.535449,16136.489536,-74464.482406
25125.456259,2664.741391,10510.924376,-72779.072310
25125.458812,1924.535449,9326.594869,-73238.729609
25125.461364,-9030.512492,-10510.924376,-79520.712692
25125.463917,-8438.347739,-7698.141797,-76915.987999
25125.466470,10362.883188,-1184.329507,-75690.235202
25125.469022,148.041188,4589.276840,-76456.330700
25125.471575,-1776.494261,4145.153275,-76609.549800
25125.474128,-10214.842000,7105.977043,-74004.825107
25125.476680,-3552.988522,5329.482782,-73698.386908
25125.479233,-2220.617826,4589.276840,-75230.577904
25125.481786,2960.823768,0.000000,-79367.493593
25125.484338,3552.988522,2220.617826,-76915.987999
25125.486891,-1036.288319,3701.029710,-75843.454302
25125.489444,-3701.029710,3256.906145,-77682.083497
25125.491996,-9622.677246,888.247130,-77375.645298
25125.494549,-1036.288319,1332.370696,-74617.701505
25125.497102,-4441.235652,888.247130,-75230.577904
25125.499654,-3552.988522,-6513.812290,-79367.493593
25125.502207,1480.411884,-3849.070898,-75690.235202
25125.504760,3997.112087,5181.441594,-74004.825107
25125.507312,-3849.070898,8882.471304,-75537.016103
25125.509865,-10362.883188,3404.947333,-76456.330700
25125.512417,14063.912898,18801.230927,-71706.538613
25125.514970,-592.164754,13767.830521,-72779.072310
25125.517523,19837.519246,9918.759623,-77069.207099
25125.520075,2664.741391,6957.935855,-75230.577904
25125.522628,12139.377449,11991.336260,-71859.757712
25125.525181,-592.164754,9178.553681,-75690.235202
25125.527733,2960.823768,10214.842000,-76456.330700
25125.530286,2516.700203,11103.089130,-74924.139704
25125.532815,7402.059420,8290.306550,-74004.825107
25125.535344,3849.070898,8142.265362,-75843.454302
25125.537873,7550.100608,8142.265362,-76149.892501
25125.540402,1036.288319,8142.265362,-75996.673402
25125.542931,7994.224174,10362.883188,-74004.825107
25125.545460,4589.276840,9918.759623,-75383.797003
25125.547989,10066.800811,9770.718434,-74770.920605
25125.550518,11695.253884,11843.295072,-73851.606007
25125.553046,8142.265362,15544.324782,-74311.263306
25125.555575,8586.388927,21021.848753,-74617.701505
25125.558104,-3256.906145,14359.995275,-75537.016103
25125.560633,8734.430116,14656.077652,-73698.386908
25125.563162,-9326.594869,5773.606348,-73851.606007
25125.565691,1480.411884,-9030.512492,-77375.645298
25125.568220,-6217.729913,-9474.636058,-76762.768900
25125.570749,9030.512492,-592.164754,-75537.016103
25125.573278,-2960.823768,3997.112087,-77222.426198
25125.575807,-1480.411884,3997.112087,-77222.426198
25125.578336,-8586.388927,6809.894666,-74004.825107
25125.580865,-3256.906145,6069.688724,-73238.729609
25125.583394,-5329.482782,5625.565159,-75077.358804
25125.585923,7105.977043,3997.112087,-78294.959896
25125.588452,592.164754,-592.164754,-75537.016103
25125.590981,-3256.906145,5329.482782,-74158.044206
25125.593509,-3849.070898,3997.112087,-77988.521696
25125.596038,-11547.212695,0.000000,-77528.864398
25125.598567,2812.782580,2368.659014,-74617.701505
25125.601096,-9770.718434,-2812.782580,-76762.768900
25125.603625,3256.906145,-5477.523971,-79214.274493
25125.606154,4145.153275,1184.329507,-75230.577904
25125.608683,2368.659014,5477.523971,-75077.358804
25125.611212,-6513.812290,5329.482782,-76915.987999
25125.613741,-3701.029710,4737.318029,-75690.235202
25125.616270,12139.377449,19097.313304,-72472.634111
25125.618799,3701.029710,12139.377449,-74617.701505
25125.621328,17912.983796,12139.377449,-76303.111601
25125.623857,1480.411884,8882.471304,-73391.948708
25125.626386,4589.276840,11991.336260,-73698.386908
25125.628915,1628.453072,9622.677246,-75996.673402
25125.631443,3256.906145,9030.512492,-76762.768900
25125.633982,6217.729913,10510.924376,-73851.606007
25125.636520,3256.906145,8586.388927,-75077.358804
25125.639059,3849.070898,4737.318029,-76149.892501
25125.641597,2220.617826,8290.306550,-76303.111601
25125.644136,7254.018232,11399.171507,-73238.729609
25125.646674,4885.359217,8882.471304,-74464.482406
25125.649212,8586.388927,11103.089130,-74924.139704
25125.651751,7254.018232,8734.430116,-74924.139704
25125.654289,13323.706956,15248.242405,-73545.167808
25125.656828,5625.565159,20133.601622,-74311.263306
25125.659366,-592.164754,17468.860231,-75996.673402
25125.661904,4737.318029,14656.077652,-74004.825107
25125.664443,-296.082377,12583.501014,-72779.072310
25125.666981,-5329.482782,-7550.100608,-77222.426198
25125.669520,-6217.729913,-9770.718434,-76609.549800
25125.672058,1332.370696,-5625.565159,-74311.263306
25125.674597,5329.482782,2812.782580,-76149.892501
25125.677135,-296.082377,4145.153275,-77528.864398
25125.679673,-8586.388927,5181.441594,-75383.797003
25125.682212,-6661.853478,4737.318029,-73238.729609
25125.684750,1036.288319,5625.565159,-74924.139704
25125.687289,444.123565,1480.411884,-77988.521696
25125.689827,6957.935855,3108.864956,-75843.454302
25125.692365,-2960.823768,3108.864956,-73851.606007
25125.694904,-740.205942,3108.864956,-75230.577904
25125.697442,-10214.842000,-296.082377,-76762.768900
25125.699981,-6217.729913,1332.370696,-73851.606007
25125.702519,-4589.276840,-740.205942,-75690.235202
25125.705058,148.041188,-5477.523971,-77528.864398
25125.707596,7254.018232,-444.123565,-76456.330700
25125.710134,3108.864956,4885.359217,-74311.263306
25125.712673,-5329.482782,6217.729913,-75996.673402
25125.715211,-11251.130318,1332.370696,-76609.549800
25125.717750,13175.665768,19393.395680,-72779.072310
25125.720288,8734.430116,12879.583391,-74004.825107
25125.722826,15840.407159,11399.171507,-76149.892501
25125.725365,4293.194464,9178.553681,-73391.948708
25125.727903,5773.606348,11547.212695,-72932.291410
25125.730442,1184.329507,9474.636058,-74770.920605
25125.732980,740.205942,8882.471304,-76762.768900
25125.735527,10955.047942,9770.718434,-75077.358804
25125.738074,3108.864956,7105.977043,-73391.948708
25125.740620,7105.977043,5033.400406,-76915.987999
25125.743167,1776.494261,6217.729913,-75843.454302
25125.745714,2516.700203,9030.512492,-74617.701505
25125.748260,6365.771101,11991.336260,-73851.606007
25125.750807,7402.059420,10362.883188,-75843.454302
25125.753354,8882.471304,10214.842000,-75996.673402
25125.755901,13027.624579,14656.077652,-73085.510509
25125.758447,7402.059420,20133.601622,-72932.291410
25125.760994,2516.700203,16432.571912,-75537.016103
25125.763541,1036.288319,15692.365970,-72932.291410
25125.766088,148.041188,11843.295072,-73391.948708
25125.768634,-5033.400406,-7994.224174,-77375.645298
25125.771181,-3108.864956,-8438.347739,-77222.426198
25125.773728,1036.288319,-5033.400406,-75077.358804
25125.776275,5477.523971,3701.029710,-76303.111601
25125.778821,-6661.853478,3552.988522,-77528.864398
25125.781368,-7105.977043,6513.812290,-74617.701505
25125.783915,-5625.565159,3997.112087,-73851.606007
25125.786461,-2812.782580,7402.059420,-73851.606007
25125.789008,6069.688724,6069.688724,-75383.797003
25125.791555,740.205942,-1332.370696,-75996.673402
25125.794102,-1628.453072,3849.070898,-73698.386908
25125.796648,-592.164754,3552.988522,-74770.920605
25125.799195,-11547.212695,-2072.576638,-78141.740796
25125.801742,-2368.659014,2368.659014,-74158.044206
25125.804289,-9622.677246,-3849.070898,-76915.987999
25125.806835,4441.235652,-3997.112087,-78907.836294
25125.809382,8438.347739,2516.700203,-76149.892501
25125.811929,-1332.370696,4441.235652,-74924.139704
25125.814476,-6069.688724,3849.070898,-76762.768900
25125.817000,-5773.606348,4145.153275,-75843.454302
25125.819525,11991.336260,17616.901420,-72472.634111
25125.822050,11547.212695,11843.295072,-75077.358804
25125.824574,11547.212695,11991.336260,-75843.454302
25125.827099,7994.224174,9622.677246,-72779.072310
25125.829624,1924.535449,10510.924376,-73391.948708
25125.832149,2072.576638,10362.883188,-74770.920605
25125.834673,1924.535449,7698.141797,-75537.016103
25125.837198,10214.842000,10214.842000,-74004.825107
25125.839723,4589.276840,9770.718434,-72319.415011
25125.842247,9918.759623,4589.276840,-76762.768900
25125.844772,-888.247130,6661.853478,-75230.577904
25125.847297,5773.606348,11695.253884,-72932.291410
25125.849822,3701.029710,9918.759623,-74770.920605
25125.852346,11547.212695,12287.418637,-75383.797003
25125.854871,11843.295072,11399.171507,-74004.825107
25125.857396,10066.800811,16284.530724,-72932.291410
25125.859921,4441.235652,19985.560434,-73545.167808
25125.862445,-2368.659014,13767.830521,-76456.330700
25125.864970,10510.924376,15544.324782,-72932.291410
25125.867495,-14656.077652,592.164754,-75537.016103
25125.870019,3997.112087,-9918.759623,-79061.055394
25125.872544,-9918.759623,-10807.006753,-77222.426198
25125.875069,10807.006753,888.247130,-74311.263306
25125.877594,-6069.688724,4441.235652,-76456.330700
25125.880118,1184.329507,4737.318029,-76762.768900
25125.882643,-10658.965565,5033.400406,-73545.167808
25125.885168,-2368.659014,6809.894666,-73238.729609
25125.887693,-3404.947333,5033.400406,-77375.645298
25125.890217,10214.842000,4885.359217,-78141.740796
25125.892742,-740.205942,-888.247130,-76149.892501
25125.895267,1628.453072,6513.812290,-73851.606007
25125.897791,-10214.842000,-1924.535449,-77069.207099
25125.900316,-6365.771101,444.123565,-75537.016103
25125.902841,-7994.224174,-592.164754,-74464.482406
25125.905366,-6217.729913,-4145.153275,-77375.645298
25125.907890,15544.324782,0.000000,-78141.740796
25125.910415,-444.123565,3108.864956,-75383.797003
25125.912940,-296.082377,7254.018232,-75843.454302
25125.915465,-18505.148550,-148.041188,-76762.768900
25125.918002,15248.242405,18209.066173,-72625.853210
25125.920538,-1776.494261,14656.077652,-72932.291410
25125.923074,24722.878463,14359.995275,-75843.454302
25125.925610,2960.823768,7994.224174,-75230.577904
25125.928146,8290.306550,11547.212695,-73085.510509
25125.930682,-1776.494261,9178.553681,-74464.482406
25125.933218,1036.288319,8290.306550,-76456.330700
25125.935754,9030.512492,9622.677246,-75996.673402
25125.938290,5773.606348,7698.141797,-74158.044206
25125.940826,10214.842000,7846.182985,-75537.016103
25125.943362,1776.494261,4293.194464,-76456.330700
25125.945898,-1036.288319,8290.306550,-74311.263306
25125.948434,5477.523971,13471.748144,-72932.291410
25125.950970,8290.306550,11399.171507,-75690.235202
25125.953506,13619.789333,12583.501014,-74770.920605
25125.956042,11991.336260,14804.118840,-72012.976812
25125.958578,3997.112087,19689.478057,-72932.291410
25125.961114,1628.453072,14804.118840,-76149.892501
25125.963650,592.164754,17024.736666,-73851.606007
25125.966186,-6957.935855,6809.894666,-74311.263306
25125.968722,148.041188,-9918.759623,-77835.302597
25125.971258,-5181.441594,-10658.965565,-77069.207099
25125.973794,7402.059420,-2072.576638,-74617.701505
25125.976329,-296.082377,3997.112087,-76762.768900
25125.978865,-3108.864956,5477.523971,-78141.740796
25125.981401,-8586.388927,6365.771101,-75690.235202
25125.983937,-6957.935855,4589.276840,-73545.167808
25125.986473,148.041188,1924.535449,-75843.454302
25125.989009,-740.205942,4885.359217,-76762.768900
25125.991545,9030.512492,5033.400406,-74311.263306
25125.994081,-7402.059420,2368.659014,-74924.139704
25125.996617,-2812.782580,2368.659014,-77069.207099
25125.999153,-10510.924376,-4441.235652,-77988.521696
25126.001689,-4293.194464,-740.205942,-75383.797003
25126.004225,-4293.194464,-3404.947333,-76303.111601
25126.006761,8290.306550,740.205942,-77069.207099
25126.009297,2960.823768,3256.906145,-76303.111601
25126.011833,-2516.700203,5921.647536,-74770.920605
25126.014369,-15544.324782,-592.164754,-76303.111601
25126.016905,11991.336260,16876.695478,-71706.538613
25126.019450,1628.453072,15396.283594,-73085.510509
25126.021996,24130.713709,13175.665768,-75690.235202
25126.024541,2812.782580,9030.512492,-75230.577904
25126.027087,4737.318029,10955.047942,-73851.606007
25126.029632,-444.123565,8882.471304,-74617.701505
25126.032178,2368.659014,8290.306550,-76609.549800
25126.034723,5033.400406,11695.253884,-74770.920605
25126.037269,7698.141797,11695.253884,-71859.757712
25126.039815,4737.318029,4441.235652,-75230.577904
25126.042360,3552.988522,6217.729913,-75537.016103
25126.044906,2812.782580,8734.430116,-74924.139704
25126.047451,3404.947333,10955.047942,-74004.825107
25126.049997,10066.800811,13323.706956,-75230.577904
25126.052542,14952.160028,13027.624579,-74464.482406
25126.055088,11399.171507,16432.571912,-72472.634111
25126.057633,3849.070898,17172.777854,-75077.358804
25126.060179,-2664.741391,13619.789333,-76609.549800
25126.062724,6809.894666,17616.901420,-72932.291410
25126.065270,-11547.212695,-1776.494261,-76456.330700
25126.067815,2812.782580,-9770.718434,-78294.959896
25126.070361,-6217.729913,-11103.089130,-77222.426198
25126.072906,12435.459826,1036.288319,-74158.044206
25126.075452,-7402.059420,3849.070898,-77375.645298
25126.077997,-4885.359217,7550.100608,-76456.330700
25126.080543,-7994.224174,6069.688724,-73545.167808
25126.083088,-444.123565,4589.276840,-72472.634111
25126.085634,-3701.029710,3552.988522,-75843.454302
25126.088179,9622.677246,4441.235652,-76303.111601
25126.090725,148.041188,5181.441594,-73851.606007
25126.093270,-3997.112087,4145.153275,-73698.386908
25126.095816,-8142.265362,-1332.370696,-77835.302597
25126.098362,-9474.636058,-2812.782580,-74924.139704
25126.100907,-1776.494261,-2220.617826,-75077.358804
25126.103453,0.000000,-3404.947333,-77835.302597
25126.105998,11843.295072,5329.482782,-77375.645298
25126.108544,444.123565,6217.729913,-74311.263306
25126.111089,-11103.089130,2220.617826,-75690.235202
25126.113635,-888.247130,2812.782580,-76303.111601
25126.116180,3404.947333,15988.448347,-73698.386908
25126.118726,13175.665768,12583.501014,-75230.577904
25126.121279,7994.224174,9770.718434,-75537.016103
25126.123831,13027.624579,12287.418637,-74158.044206
25126.126384,-2516.700203,8290.306550,-73851.606007
25126.128937,2516.700203,9622.677246,-75077.358804
25126.131490,-1036.288319,9326.594869,-76609.549800
25126.134043,9178.553681,10066.800811,-75537.016103
25126.136596,8882.471304,10214.842000,-73085.510509
25126.139148,3552.988522,3849.070898,-76303.111601
25126.141701,2220.617826,6513.812290,-76456.330700
25126.144254,2664.741391,10510.924376,-73085.510509
25126.146807,7105.977043,12435.459826,-73851.606007
25126.149360,13323.706956,14359.995275,-75690.235202
25126.151913,13471.748144,15248.242405,-73085.510509
25126.154465,8290.306550,20133.601622,-72472.634111
25126.157018,-296.082377,13619.789333,-75230.577904
25126.159571,888.247130,15396.283594,-75843.454302
25126.162124,-5477.523971,10066.800811,-73238.729609
25126.164677,-444.123565,-5921.647536,-77528.864398
25126.167230,-4441.235652,-10807.006753,-77682.083497
25126.169783,6661.853478,-3552.988522,-74924.139704
25126.172335,296.082377,4293.194464,-75843.454302
25126.174888,-1628.453072,5477.523971,-77528.864398
25126.177441,-10510.924376,7254.018232,-75537.016103
25126.179994,-9474.636058,6513.812290,-73085.510509
25126.182547,3404.947333,1924.535449,-74924.139704
25126.185100,-2960.823768,444.123565,-77222.426198
25126.187652,9178.553681,6069.688724,-73391.948708
25126.190205,-8734.430116,3552.988522,-73085.510509
25126.192758,-3701.029710,2072.576638,-75996.673402
25126.195311,-13027.624579,-4441.235652,-75996.673402
25126.197864,-4737.318029,-4293.194464,-73851.606007
25126.200417,-2072.576638,-3404.947333,-74617.701505
25126.202969,10807.006753,3849.070898,-77375.645298
25126.205522,296.082377,5625.565159,-75996.673402
25126.208075,-5625.565159,4145.153275,-75383.797003
25126.210628,-9622.677246,148.041188,-75996.673402
25126.213181,6513.812290,15396.283594,-73085.510509
25126.215734,8142.265362,14063.912898,-74158.044206
25126.218286,19393.395680,14359.995275,-75230.577904
25126.220839,4885.359217,9622.677246,-75690.235202
25126.223399,-1184.329507,9474.636058,-72932.291410
25126.225958,1036.288319,9178.553681,-74617.701505
25126.228517,2072.576638,7550.100608,-75996.673402
25126.231076,9770.718434,11251.130318,-74158.044206
25126.233635,3552.988522,8142.265362,-73391.948708
25126.236195,10214.842000,6809.894666,-74924.139704
25126.238754,888.247130,4737.318029,-75996.673402
25126.241313,1628.453072,10066.800811,-74770.920605
25126.243872,8438.347739,13323.706956,-74004.825107
25126.246431,10510.924376,12731.542202,-75996.673402
25126.248991,17912.983796,17172.777854,-73698.386908
25126.251550,3701.029710,17764.942608,-72779.072310
25126.254109,1036.288319,15100.201217,-74770.920605
25126.256668,740.205942,14063.912898,-74617.701505
25126.259227,-3256.906145,14063.912898,-72932.291410
25126.261787,-2368.659014,-4589.276840,-76609.549800
25126.264346,-10066.800811,-10362.883188,-78294.959896
25126.266905,11991.336260,-3552.988522,-75690.235202
25126.269464,-3404.947333,3701.029710,-74617.701505
25126.272023,1036.288319,6217.729913,-77682.083497
25126.274583,-12139.377449,7550.100608,-76609.549800
25126.277142,-4441.235652,7846.182985,-72779.072310
25126.279701,-592.164754,5329.482782,-74004.825107
25126.282260,4293.194464,2072.576638,-77069.207099
25126.284819,-888.247130,2812.782580,-76149.892501
25126.287379,-1332.370696,5921.647536,-75077.358804
25126.289938,-5773.606348,-296.082377,-77528.864398
25126.292497,-11251.130318,-4293.194464,-77528.864398
25126.295056,-7846.182985,-4885.359217,-75383.797003
25126.297615,-2812.782580,-3404.947333,-76149.892501
25126.300175,18209.066173,4441.235652,-77835.302597
25126.302734,-740.205942,4441.235652,-77375.645298
25126.305293,-11991.336260,3404.947333,-74158.044206
25126.307852,-296.082377,2072.576638,-75383.797003
25126.310412,1036.288319,13767.830521,-75077.358804
25126.312971,14211.954086,13767.830521,-74617.701505
25126.315530,14656.077652,13767.830521,-74924.139704
25126.318089,11251.130318,10214.842000,-74464.482406
25126.320648,-2220.617826,9326.594869,-73391.948708
25126.323208,592.164754,9178.553681,-73545.167808
25126.325772,3849.070898,6957.935855,-76303.111601
25126.328336,4737.318029,8586.388927,-74617.701505
25126.330900,14656.077652,10510.924376,-73391.948708
25126.333464,1924.535449,3256.906145,-75996.673402
25126.336028,6069.688724,7254.018232,-76149.892501
25126.338592,-148.041188,8586.388927,-74004.825107
25126.341156,5477.523971,13471.748144,-74311.263306
25126.343721,15100.201217,16136.489536,-75690.235202
25126.346285,11103.089130,17912.983796,-73085.510509
25126.348849,6365.771101,16876.695478,-74158.044206
25126.351413,-1036.288319,11843.295072,-75230.577904
25126.353977,3404.947333,14508.036463,-74004.825107
25126.356541,-10362.883188,6513.812290,-73545.167808
25126.359105,1628.453072,-4589.276840,-76456.330700
25126.361669,-6069.688724,-9622.677246,-76762.768900
25126.364234,10807.006753,-2960.823768,-74311.263306
25126.366798,-6661.853478,4885.359217,-75690.235202
25126.369362,-1924.535449,6957.935855,-77375.645298
25126.371926,-11991.336260,6809.894666,-75383.797003
25126.374490,-3997.112087,8734.430116,-72166.195912
25126.377054,2664.741391,5625.565159,-74311.263306
25126.379618,4145.153275,-2220.617826,-77988.521696
25126.382182,-148.041188,3997.112087,-76149.892501
25126.384746,592.164754,6069.688724,-74617.701505
25126.387311,-10214.842000,-3701.029710,-77375.645298
25126.389875,-8142.265362,-4293.194464,-75230.577904
25126.392439,-9770.718434,-5773.606348,-74311.263306
25126.395003,11399.171507,-296.082377,-76762.768900
25126.397567,6217.729913,5625.565159,-77375.645298
25126.400131,-444.123565,6661.853478,-75537.016103
25126.402695,-14508.036463,148.041188,-75230.577904
25126.405259,5181.441594,10955.047942,-72319.415011
25126.407824,1776.494261,12583.501014,-75230.577904
25126.410388,22502.260637,14211.954086,-75077.358804
25126.412952,5625.565159,10362.883188,-74311.263306
25126.415516,9918.759623,10362.883188,-74158.044206
25126.418080,-1480.411884,7105.977043,-74158.044206
25126.420644,-2664.741391,7105.977043,-75383.797003
25126.423208,6957.935855,7402.059420,-76915.987999
25126.425772,7994.224174,11103.089130,-74924.139704
25126.428341,11103.089130,6217.729913,-75537.016103
25126.430909,2516.700203,4885.359217,-75537.016103
25126.433477,592.164754,7105.977043,-75383.797003
25126.436045,5921.647536,12287.418637,-74158.044206
25126.438613,8438.347739,14804.118840,-74617.701505
25126.441181,17912.983796,16876.695478,-75077.358804
25126.443750,6957.935855,20577.725188,-72472.634111
25126.446318,5181.441594,15100.201217,-73851.606007
25126.448886,-1480.411884,12583.501014,-75230.577904
25126.451454,-8438.347739,10807.006753,-73391.948708
25126.454022,-444.123565,-4293.194464,-75537.016103
25126.456591,-7550.100608,-8734.430116,-77375.645298
25126.459159,11695.253884,-4737.318029,-75383.797003
25126.461727,-740.205942,2960.823768,-74311.263306
25126.464295,2960.823768,6217.729913,-76915.987999
25126.466863,-13323.706956,6217.729913,-75843.454302
25126.469431,-4737.318029,7550.100608,-72472.634111
25126.472000,-4293.194464,4441.235652,-73545.167808
25126.474568,9770.718434,4293.194464,-75843.454302
25126.477136,-444.123565,1332.370696,-76303.111601
25126.479704,-2220.617826,5773.606348,-74311.263306
25126.482272,-6661.853478,0.000000,-76149.892501
25126.484840,-16728.654289,-7105.977043,-76915.987999
25126.487409,-1628.453072,-5033.400406,-74770.920605
25126.489977,3256.906145,-1924.535449,-76303.111601
25126.492545,11547.212695,6069.688724,-77222.426198
25126.495113,-740.205942,6365.771101,-76149.892501
25126.497681,-13767.830521,1036.288319,-74617.701505
25126.500249,4737.318029,9030.512492,-73238.729609
25126.502818,888.247130,11843.295072,-74311.263306
25126.505386,25018.960840,14508.036463,-75383.797003
25126.507954,4145.153275,10658.965565,-74311.263306
25126.510522,13471.748144,11843.295072,-73698.386908
25126.513090,-4145.153275,5773.606348,-74617.701505
25126.515658,444.123565,6957.935855,-75537.016103
25126.518227,1480.411884,10066.800811,-74311.263306
25126.520795,10066.800811,9178.553681,-74464.482406
25126.523363,7550.100608,6661.853478,-75230.577904
25126.525931,9178.553681,7698.141797,-74158.044206
25126.528499,-3552.988522,4737.318029,-75383.797003
25126.531042,7698.141797,12879.583391,-73238.729609
25126.533585,7105.977043,14656.077652,-74770.920605
25126.536127,17764.942608,17172.777854,-75383.797003
25126.538670,6661.853478,21465.972318,-72779.072310
25126.541213,5329.482782,14508.036463,-73851.606007
25126.543755,2220.617826,14063.912898,-74617.701505
25126.546298,-9770.718434,9770.718434,-73698.386908
25126.548841,-592.164754,-4737.318029,-76762.768900
25126.551383,-6513.812290,-8290.306550,-77069.207099
25126.553926,10214.842000,-3701.029710,-75843.454302
25126.556469,1480.411884,3404.947333,-75690.235202
25126.559011,-296.082377,6809.894666,-76149.892501
25126.561554,-11399.171507,7550.100608,-75537.016103
25126.564097,-6069.688724,8290.306550,-72779.072310
25126.566639,1184.329507,6513.812290,-73545.167808
25126.569182,4293.194464,-148.041188,-77222.426198
25126.571724,592.164754,3404.947333,-75690.235202
25126.574267,444.123565,5625.565159,-74617.701505
25126.576810,-8142.265362,888.247130,-76456.330700
25126.579352,-10214.842000,-5773.606348,-77222.426198
25126.581895,-9622.677246,-5625.565159,-74311.263306
25126.584438,14952.160028,2368.659014,-76303.111601
25126.586980,5921.647536,5625.565159,-77988.521696
25126.589523,-2516.700203,5477.523971,-77069.207099
25126.592066,-11399.171507,-1036.288319,-75383.797003
25126.594608,4589.276840,13175.665768,-72166.195912
25126.597151,2960.823768,11991.336260,-75230.577904
25126.599694,22058.137072,14211.954086,-75996.673402
25126.602236,6957.935855,11251.130318,-73545.167808
25126.604779,13471.748144,11103.089130,-74770.920605
25126.607322,296.082377,6513.812290,-74924.139704
25126.609864,-1184.329507,5181.441594,-74924.139704
25126.612407,9326.594869,9770.718434,-74770.920605
25126.614950,3108.864956,6957.935855,-74770.920605
25126.617492,9178.553681,8586.388927,-74617.701505
25126.620035,6661.853478,5625.565159,-75383.797003
25126.622578,296.082377,6957.935855,-75537.016103
25126.625120,5329.482782,12139.377449,-74464.482406
25126.627663,11251.130318,15544.324782,-75077.358804
25126.630206,16284.530724,18505.148550,-74770.920605
25126.632757,1184.329507,17024.736666,-73698.386908
25126.635307,4589.276840,13027.624579,-75383.797003
25126.637858,2220.617826,13323.706956,-74158.044206
25126.640409,-9474.636058,5773.606348,-73391.948708
25126.642960,-740.205942,-4885.359217,-75383.797003
25126.645511,-7698.141797,-8290.306550,-77988.521696
25126.648062,12435.459826,444.123565,-76149.892501
25126.650613,-7254.018232,4885.359217,-75690.235202
25126.653164,1480.411884,8142.265362,-75843.454302
25126.655715,-12731.542202,6513.812290,-75537.016103
25126.658266,-2812.782580,9326.594869,-72932.291410
25126.660817,-1480.411884,2960.823768,-74464.482406
25126.663368,3108.864956,3849.070898,-77528.864398
25126.665918,4293.194464,4589.276840,-75843.454302
25126.668469,-5033.400406,2220.617826,-73698.386908
25126.671020,-13027.624579,-2220.617826,-76915.987999
25126.673571,-11547.212695,-7698.141797,-75537.016103
25126.676122,-1332.370696,-3701.029710,-75077.358804
25126.678673,14656.077652,5329.482782,-75690.235202
25126.681224,2960.823768,4441.235652,-77988.521696
25126.683775,-2664.741391,3404.947333,-76762.768900
25126.686326,-6957.935855,740.205942,-73698.386908
25126.688877,-5477.523971,12879.583391,-74924.139704
25126.691428,17616.901420,12287.418637,-76915.987999
25126.693979,12287.418637,14063.912898,-75077.358804
25126.696530,15396.283594,12583.501014,-72779.072310
25126.699080,-2516.700203,6661.853478,-74617.701505
25126.701631,1184.329507,7402.059420,-74311.263306
25126.704182,-1332.370696,6957.935855,-75996.673402
25126.706733,10214.842000,10510.924376,-76609.549800
25126.709284,6365.771101,9770.718434,-74770.920605
25126.711835,7994.224174,3256.906145,-75537.016103
25126.714386,3701.029710,6069.688724,-75230.577904
25126.716937,4145.153275,9622.677246,-74311.263306
25126.719488,6513.812290,14508.036463,-74617.701505
25126.722039,13915.871710,18209.066173,-75230.577904
25126.724590,10362.883188,20133.601622,-73085.510509
25126.727141,5329.482782,15692.365970,-73698.386908
25126.729691,3108.864956,14952.160028,-74311.263306
25126.732242,-10214.842000,10214.842000,-74617.701505
25126.734800,-444.123565,-4589.276840,-75690.235202
25126.737358,-10510.924376,-9474.636058,-78294.959896
25126.739916,11991.336260,-5477.523971,-76762.768900
25126.742474,296.082377,2812.782580,-75843.454302
25126.745032,3404.947333,7550.100608,-75843.454302
25126.747589,-11103.089130,7105.977043,-75996.673402
25126.750147,-5477.523971,6513.812290,-73085.510509
25126.752705,-4145.153275,6661.853478,-73391.948708
25126.755263,6069.688724,2960.823768,-75690.235202
25126.757821,592.164754,4441.235652,-75996.673402
25126.760379,-888.247130,6513.812290,-73851.606007
25126.762937,-6809.894666,296.082377,-76456.330700
25126.765494,-14508.036463,-7402.059420,-77222.426198
25126.768052,-6365.771101,-5033.400406,-74770.920605
25126.770610,15840.407159,5329.482782,-75537.016103
25126.773168,4441.235652,6069.688724,-79061.055394
25126.775726,-2368.659014,2812.782580,-77682.083497
25126.778284,-5921.647536,-148.041188,-73238.729609
25126.780842,1776.494261,13767.830521,-72472.634111
25126.783399,6069.688724,11399.171507,-76149.892501
25126.785957,18801.230927,16136.489536,-75537.016103
