#time,accel_x,accel_y,accel_z
28675.794088,1480.411884,6365.771101,-75230.577904
28675.796515,1628.453072,6661.853478,-75230.577904
28675.798943,1480.411884,6661.853478,-75230.577904
28675.801370,5773.606348,5773.606348,-75230.577904
28675.803798,1332.370696,7994.224174,-74770.920605
28675.806225,7254.018232,5921.647536,-75230.577904
28675.808653,2960.823768,9030.512492,-74311.263306
28675.811080,7254.018232,4589.276840,-75996.673402
28675.813508,1776.494261,7846.182985,-74924.139704
28675.815936,4589.276840,-3108.864956,-77682.083497
28675.818363,-1924.535449,3701.029710,-74004.825107
28675.820791,1480.411884,5773.606348,-75690.235202
28675.823218,8734.430116,7698.141797,-77222.426198
28675.825646,4441.235652,1184.329507,-75843.454302
28675.828073,13915.871710,-2072.576638,-74311.263306
28675.830501,-1036.288319,-3552.988522,-75843.454302
28675.832928,-296.082377,2368.659014,-75537.016103
28675.835356,-7550.100608,1628.453072,-76456.330700
28675.837783,4589.276840,5329.482782,-74311.263306
28675.840211,1184.329507,18061.024985,-74464.482406
28675.842639,-2664.741391,21614.013506,-76149.892501
28675.845066,-3701.029710,19393.395680,-73851.606007
28675.847494,1332.370696,3108.864956,-74770.920605
28675.849921,-1776.494261,3108.864956,-75077.358804
28675.852412,5625.565159,10066.800811,-75383.797003
28675.854903,3404.947333,7698.141797,-78141.740796
28675.857393,1332.370696,3849.070898,-75230.577904
28675.859884,-5625.565159,2812.782580,-73545.167808
28675.862375,1332.370696,6069.688724,-73851.606007
28675.864865,-6661.853478,12583.501014,-73851.606007
28675.867356,8734.430116,9622.677246,-76149.892501
28675.869847,-4441.235652,6365.771101,-76149.892501
28675.872338,3849.070898,6957.935855,-74004.825107
28675.874828,-1776.494261,10214.842000,-74924.139704
28675.877319,0.000000,2960.823768,-77375.645298
28675.879810,-4885.359217,8438.347739,-73238.729609
28675.882300,2368.659014,5625.565159,-74464.482406
28675.884791,0.000000,11547.212695,-74770.920605
28675.887282,-2664.741391,14063.912898,-76303.111601
28675.889773,4293.194464,8882.471304,-75537.016103
28675.892263,-10362.883188,9622.677246,-73085.510509
28675.894754,-296.082377,10807.006753,-74158.044206
28675.897245,-5033.400406,15100.201217,-75383.797003
28675.899735,10066.800811,8882.471304,-75690.235202
28675.902226,592.164754,5921.647536,-75077.358804
28675.904717,1332.370696,2960.823768,-75383.797003
28675.907208,-1480.411884,5033.400406,-75230.577904
28675.909698,2664.741391,5477.523971,-74770.920605
28675.912189,-6069.688724,10658.965565,-75077.358804
28675.914680,-3552.988522,11991.336260,-76609.549800
28675.917170,14508.036463,-444.123565,-76915.987999
28675.919661,-4737.318029,1628.453072,-72166.195912
28675.922152,12731.542202,7994.224174,-76456.330700
28675.924643,7550.100608,5329.482782,-78141.740796
28675.927133,5625.565159,3108.864956,-74311.263306
28675.929624,-3701.029710,5773.606348,-73698.386908
28675.932115,-3108.864956,7994.224174,-75843.454302
28675.934605,7550.100608,8290.306550,-74617.701505
28675.937096,7254.018232,4589.276840,-74464.482406
28675.939587,11843.295072,1924.535449,-75383.797003
28675.942078,2664.741391,1776.494261,-76303.111601
28675.944568,3997.112087,3256.906145,-76303.111601
28675.947059,-8586.388927,4589.276840,-75230.577904
28675.949550,7254.018232,5033.400406,-75537.016103
28675.952076,3849.070898,5773.606348,-75383.797003
28675.954602,7105.977043,5477.523971,-73851.606007
28675.957128,6809.894666,3552.988522,-75230.577904
28675.959654,-1628.453072,5625.565159,-75996.673402
28675.962181,6513.812290,3849.070898,-75383.797003
28675.964707,-3552.988522,8438.347739,-74617.701505
28675.967233,4589.276840,9030.512492,-75383.797003
28675.969759,12583.501014,296.082377,-76456.330700
28675.972285,-3108.864956,6661.853478,-73698.386908
28675.974811,13027.624579,5773.606348,-75690.235202
28675.977338,-5033.400406,4293.194464,-76762.768900
28675.979864,10510.924376,4589.276840,-75383.797003
28675.982390,592.164754,3552.988522,-74464.482406
28675.984916,9030.512492,5477.523971,-75690.235202
28675.987442,-2220.617826,6365.771101,-76149.892501
28675.989968,6365.771101,6365.771101,-74311.263306
28675.992495,4737.318029,1628.453072,-75383.797003
28675.995021,10510.924376,-2220.617826,-75383.797003
28675.997547,-4885.359217,296.082377,-75230.577904
28676.000073,1628.453072,7105.977043,-74158.044206
28676.002599,2812.782580,4737.318029,-75230.577904
28676.005126,7402.059420,-1924.535449,-75537.016103
28676.007652,5181.441594,1184.329507,-73851.606007
28676.010178,5773.606348,8142.265362,-76609.549800
28676.012704,8586.388927,8734.430116,-75843.454302
28676.015230,-25167.002028,17764.942608,-73851.606007
28676.017756,9178.553681,11695.253884,-76456.330700
28676.020283,-11843.295072,9474.636058,-73851.606007
28676.022809,17172.777854,4145.153275,-73698.386908
28676.025335,1036.288319,7846.182985,-73851.606007
28676.027861,3701.029710,6513.812290,-76915.987999
28676.030387,-740.205942,7254.018232,-75077.358804
28676.032937,-9918.759623,6217.729913,-75383.797003
28676.035487,-1184.329507,9178.553681,-74617.701505
28676.038037,-2368.659014,12879.583391,-74311.263306
28676.040588,4441.235652,14063.912898,-74311.263306
28676.043138,1332.370696,10362.883188,-75230.577904
28676.045688,-1628.453072,7254.018232,-75230.577904
28676.048238,-296.082377,4145.153275,-74311.263306
28676.050788,3404.947333,4885.359217,-74924.139704
28676.053338,-1332.370696,5329.482782,-76915.987999
28676.055888,2220.617826,9178.553681,-75537.016103
28676.058438,-3997.112087,10955.047942,-74770.920605
28676.060988,4145.153275,6217.729913,-74464.482406
28676.063538,-1184.329507,3997.112087,-75843.454302
28676.066088,-2664.741391,7698.141797,-74770.920605
28676.068638,592.164754,8734.430116,-75383.797003
28676.071188,-5477.523971,9474.636058,-75843.454302
28676.073738,4885.359217,7402.059420,-75230.577904
28676.076288,-2072.576638,9474.636058,-73698.386908
28676.078838,444.123565,9178.553681,-74924.139704
28676.081388,296.082377,10807.006753,-75077.358804
28676.083938,-5773.606348,13027.624579,-74464.482406
28676.086488,296.082377,14508.036463,-74617.701505
28676.089038,-7254.018232,13323.706956,-75537.016103
28676.091589,10658.965565,3108.864956,-75537.016103
28676.094139,-3552.988522,2072.576638,-74158.044206
28676.096689,4441.235652,4145.153275,-75383.797003
28676.099239,-1776.494261,6661.853478,-76609.549800
28676.101789,3701.029710,5921.647536,-75537.016103
28676.104339,-7105.977043,10214.842000,-74464.482406
28676.106889,-4885.359217,15840.407159,-74617.701505
28676.109439,12879.583391,5477.523971,-75996.673402
28676.111989,-5033.400406,2368.659014,-73238.729609
28676.114539,18061.024985,3404.947333,-76915.987999
28676.117089,5625.565159,-888.247130,-77528.864398
28676.119639,4441.235652,296.082377,-74770.920605
28676.122189,-2220.617826,4589.276840,-74770.920605
28676.124739,-5773.606348,9622.677246,-76456.330700
28676.127289,2516.700203,11399.171507,-75077.358804
28676.129839,11251.130318,5773.606348,-73851.606007
28676.132389,9918.759623,2812.782580,-75383.797003
28676.134955,4589.276840,1480.411884,-76303.111601
28676.137522,1480.411884,2220.617826,-76149.892501
28676.140088,-5033.400406,3701.029710,-75230.577904
28676.142654,1628.453072,5181.441594,-75077.358804
28676.145220,8586.388927,5181.441594,-74924.139704
28676.147786,5033.400406,5033.400406,-74770.920605
28676.150353,5477.523971,4589.276840,-75230.577904
28676.152919,6513.812290,5033.400406,-77069.207099
28676.155485,-2664.741391,5773.606348,-75690.235202
28676.158051,2072.576638,6513.812290,-74004.825107
28676.160617,1924.535449,7402.059420,-76149.892501
28676.163183,8438.347739,3404.947333,-75690.235202
28676.165750,6661.853478,4293.194464,-72932.291410
28676.168316,1628.453072,4145.153275,-75383.797003
28676.170882,6957.935855,3256.906145,-77069.207099
28676.173448,-3108.864956,5181.441594,-75077.358804
28676.176014,8438.347739,8734.430116,-73698.386908
28676.178580,2220.617826,5921.647536,-76303.111601
28676.181147,7105.977043,4145.153275,-75996.673402
28676.183713,10214.842000,0.000000,-74464.482406
28676.186279,1184.329507,1332.370696,-75077.358804
28676.188845,-2664.741391,740.205942,-76149.892501
28676.191411,-888.247130,2664.741391,-75843.454302
28676.193977,5033.400406,1184.329507,-75843.454302
28676.196544,11547.212695,-1036.288319,-75383.797003
28676.199110,148.041188,5477.523971,-75077.358804
28676.201676,13323.706956,8438.347739,-75843.454302
28676.204242,-10955.047942,8290.306550,-74924.139704
28676.206808,-13915.871710,16284.530724,-74770.920605
28676.209374,2368.659014,13471.748144,-74770.920605
28676.211941,-1036.288319,9918.759623,-73851.606007
28676.214507,13323.706956,5477.523971,-75996.673402
28676.217073,1036.288319,6365.771101,-76762.768900
28676.219639,1332.370696,5921.647536,-75996.673402
28676.222205,-6661.853478,592.164754,-76456.330700
28676.224771,-6365.771101,6513.812290,-74924.139704
28676.227338,888.247130,10955.047942,-74464.482406
28676.229904,1628.453072,15840.407159,-74004.825107
28676.232470,2368.659014,14063.912898,-74924.139704
28676.235036,-1184.329507,10362.883188,-75383.797003
28676.237612,-6809.894666,5477.523971,-75230.577904
28676.240188,1332.370696,4737.318029,-74464.482406
28676.242765,-592.164754,7402.059420,-75383.797003
28676.245341,3108.864956,7402.059420,-75537.016103
28676.247917,2220.617826,7994.224174,-74617.701505
28676.250493,-1480.411884,7254.018232,-73851.606007
28676.253069,-1184.329507,6661.853478,-74311.263306
28676.255645,-1332.370696,4737.318029,-76456.330700
28676.258221,4885.359217,8882.471304,-75230.577904
28676.260797,-1628.453072,9622.677246,-75230.577904
28676.263374,3404.947333,7105.977043,-76456.330700
28676.265950,-6069.688724,10066.800811,-74004.825107
28676.268526,3552.988522,8882.471304,-74158.044206
28676.271102,-9326.594869,13471.748144,-74770.920605
28676.273678,2960.823768,14656.077652,-76762.768900
28676.276254,-10807.006753,17024.736666,-74617.701505
28676.278830,12139.377449,6365.771101,-75230.577904
28676.281406,-3997.112087,1036.288319,-74311.263306
28676.283982,5477.523971,2664.741391,-75996.673402
28676.286559,-5477.523971,7698.141797,-75690.235202
28676.289135,5033.400406,5773.606348,-76149.892501
28676.291711,-4441.235652,7994.224174,-75230.577904
28676.294287,-5773.606348,12879.583391,-74617.701505
28676.296863,8586.388927,9622.677246,-75690.235202
28676.299439,-5181.441594,3849.070898,-73545.167808
28676.302015,14211.954086,5329.482782,-75383.797003
28676.304591,6809.894666,444.123565,-76762.768900
28676.307168,7846.182985,-3552.988522,-76303.111601
28676.309744,1480.411884,444.123565,-75077.358804
28676.312320,-4293.194464,6957.935855,-75996.673402
28676.314896,-4441.235652,12731.542202,-75383.797003
28676.317472,11399.171507,8734.430116,-74158.044206
28676.320048,8290.306550,6217.729913,-74770.920605
28676.322624,12879.583391,740.205942,-76609.549800
28676.325200,-3701.029710,2664.741391,-75843.454302
28676.327777,740.205942,740.205942,-76303.111601
28676.330353,-1332.370696,3552.988522,-75537.016103
28676.332929,5921.647536,4885.359217,-75690.235202
28676.335505,5477.523971,5921.647536,-75383.797003
28676.338081,10214.842000,3404.947333,-74770.920605
28676.340566,11251.130318,5921.647536,-76456.330700
28676.343050,-5477.523971,5181.441594,-76303.111601
28676.345535,5329.482782,5921.647536,-74158.044206
28676.348020,2516.700203,7994.224174,-75077.358804
28676.350505,5181.441594,3256.906145,-76303.111601
28676.352989,9326.594869,2368.659014,-74311.263306
28676.355474,2960.823768,2220.617826,-74004.825107
28676.357959,4885.359217,6661.853478,-76303.111601
28676.360443,888.247130,9178.553681,-75843.454302
28676.362928,2368.659014,8438.347739,-74924.139704
28676.365413,8586.388927,4885.359217,-75077.358804
28676.367897,13175.665768,-1332.370696,-76149.892501
28676.370382,2220.617826,2220.617826,-74464.482406
28676.372867,-2220.617826,1036.288319,-77069.207099
28676.375352,-740.205942,4293.194464,-76303.111601
28676.377836,3404.947333,-296.082377,-76609.549800
28676.380321,9178.553681,-2812.782580,-74464.482406
28676.382806,1924.535449,4885.359217,-74617.701505
28676.385290,15544.324782,9918.759623,-76609.549800
28676.387775,-10066.800811,7846.182985,-75996.673402
28676.390260,-17764.942608,17616.901420,-73851.606007
28676.392745,6365.771101,11547.212695,-75383.797003
28676.395229,-6513.812290,10807.006753,-73545.167808
28676.397714,16136.489536,6957.935855,-75690.235202
28676.400199,740.205942,7846.182985,-76149.892501
28676.402683,-148.041188,3256.906145,-76915.987999
28676.405168,-1628.453072,1776.494261,-75843.454302
28676.407653,-12731.542202,4589.276840,-76609.549800
28676.410138,5329.482782,11695.253884,-74617.701505
28676.412622,-1480.411884,15840.407159,-74464.482406
28676.415107,7105.977043,13027.624579,-74617.701505
28676.417592,-5625.565159,12139.377449,-73698.386908
28676.420076,148.041188,5329.482782,-74617.701505
28676.422561,4589.276840,6513.812290,-74004.825107
28676.425046,-1036.288319,9030.512492,-75077.358804
28676.427530,2516.700203,8290.306550,-76149.892501
28676.430015,2516.700203,6661.853478,-74311.263306
28676.432500,-2368.659014,6217.729913,-73545.167808
28676.434985,1332.370696,5773.606348,-74770.920605
28676.437469,-4737.318029,6513.812290,-76609.549800
28676.439987,1036.288319,9326.594869,-76609.549800
28676.442505,2812.782580,9918.759623,-74617.701505
28676.445023,-592.164754,9474.636058,-75690.235202
28676.447541,-740.205942,6365.771101,-74311.263306
28676.450058,-9178.553681,12139.377449,-73238.729609
28676.452576,1184.329507,13767.830521,-74311.263306
28676.455094,-6217.729913,17912.983796,-75230.577904
28676.457612,10214.842000,10214.842000,-75537.016103
28676.460130,-888.247130,2960.823768,-74311.263306
28676.462648,-2368.659014,1628.453072,-75230.577904
28676.465165,1776.494261,4145.153275,-75843.454302
28676.467683,-296.082377,6661.853478,-74924.139704
28676.470201,-4885.359217,10807.006753,-75230.577904
28676.472719,-6217.729913,16580.613101,-74464.482406
28676.475237,15840.407159,6957.935855,-76149.892501
28676.477754,-7994.224174,2220.617826,-73085.510509
28676.480272,14211.954086,3552.988522,-75843.454302
28676.482790,4737.318029,1036.288319,-75537.016103
28676.485308,3997.112087,-2220.617826,-75537.016103
28676.487826,444.123565,2960.823768,-74924.139704
28676.490344,-4885.359217,7105.977043,-75690.235202
28676.492861,444.123565,12879.583391,-73698.386908
28676.495379,9622.677246,7698.141797,-74311.263306
28676.497897,8586.388927,5625.565159,-74311.263306
28676.500415,11695.253884,2516.700203,-75996.673402
28676.502933,6069.688724,2368.659014,-75537.016103
28676.505450,-5033.400406,-1184.329507,-76149.892501
28676.507968,0.000000,3701.029710,-75996.673402
28676.510486,5329.482782,5625.565159,-74464.482406
28676.513004,12435.459826,4885.359217,-74464.482406
28676.515522,-1036.288319,6365.771101,-74158.044206
28676.518040,14656.077652,5773.606348,-76762.768900
28676.520557,-12435.459826,8586.388927,-75996.673402
28676.523075,3404.947333,7105.977043,-74770.920605
28676.525593,3849.070898,3849.070898,-75690.235202
28676.528111,11251.130318,2072.576638,-75843.454302
28676.530629,4737.318029,2220.617826,-73698.386908
28676.533146,2812.782580,5477.523971,-74770.920605
28676.535664,5181.441594,7105.977043,-77069.207099
28676.538182,-5773.606348,7402.059420,-76609.549800
28676.540723,12583.501014,5033.400406,-75230.577904
28676.543263,8438.347739,-2220.617826,-75077.358804
28676.545803,6069.688724,-444.123565,-76149.892501
28676.548344,-3701.029710,4441.235652,-75230.577904
28676.550884,3701.029710,4145.153275,-75383.797003
28676.553425,2960.823768,444.123565,-75843.454302
28676.555965,9770.718434,-2516.700203,-74464.482406
28676.558505,-296.082377,5033.400406,-75230.577904
28676.561046,18653.189738,8290.306550,-76149.892501
28676.563586,-16580.613101,9622.677246,-75077.358804
28676.566126,1036.288319,14508.036463,-75383.797003
28676.568667,-6217.729913,12879.583391,-74004.825107
28676.571207,5329.482782,9178.553681,-73238.729609
28676.573748,8142.265362,8290.306550,-74464.482406
28676.576288,1332.370696,5625.565159,-76915.987999
28676.578828,1924.535449,6365.771101,-75843.454302
28676.581369,-5773.606348,1184.329507,-76609.549800
28676.583909,-8290.306550,5625.565159,-75230.577904
28676.586449,1924.535449,11399.171507,-74464.482406
28676.588990,2664.741391,16432.571912,-73698.386908
28676.591530,1184.329507,12287.418637,-75383.797003
28676.594070,-4737.318029,9918.759623,-74770.920605
28676.596611,-3108.864956,2812.782580,-75537.016103
28676.599151,1184.329507,9326.594869,-74158.044206
28676.601692,-1184.329507,8734.430116,-77375.645298
28676.604232,9178.553681,6217.729913,-77988.521696
28676.606772,-6069.688724,6957.935855,-73238.729609
28676.609313,4589.276840,2516.700203,-74311.263306
28676.611853,-6661.853478,6957.935855,-76149.892501
28676.614393,-1036.288319,8882.471304,-76762.768900
28676.616934,2960.823768,11103.089130,-75383.797003
28676.619474,-1628.453072,11103.089130,-75077.358804
28676.622015,-148.041188,8290.306550,-75996.673402
28676.624555,-5921.647536,10510.924376,-74464.482406
28676.627095,296.082377,15248.242405,-74158.044206
28676.629636,1332.370696,14063.912898,-76149.892501
28676.632176,4145.153275,8586.388927,-74617.701505
28676.634716,592.164754,3997.112087,-74464.482406
28676.637257,-1924.535449,3256.906145,-75996.673402
28676.639797,4293.194464,2368.659014,-76303.111601
28676.642354,-2664.741391,5181.441594,-75077.358804
28676.644911,-4885.359217,11843.295072,-74617.701505
28676.647469,2960.823768,16136.489536,-75077.358804
28676.650026,9622.677246,4589.276840,-74770.920605
28676.652583,-9326.594869,3997.112087,-73851.606007
28676.655140,25907.207970,-1184.329507,-77375.645298
28676.657697,-1332.370696,-2960.823768,-76762.768900
28676.660254,7994.224174,-1628.453072,-75230.577904
28676.662811,-3701.029710,4293.194464,-75843.454302
28676.665369,-2516.700203,8142.265362,-75537.016103
28676.667926,3108.864956,11399.171507,-73545.167808
28676.670483,9770.718434,6513.812290,-74311.263306
28676.673040,8586.388927,5181.441594,-74464.482406
28676.675597,9326.594869,2072.576638,-75996.673402
28676.678154,-2072.576638,2220.617826,-75996.673402
28676.680711,1036.288319,888.247130,-76149.892501
28676.683269,2072.576638,8290.306550,-73851.606007
28676.685826,9030.512492,5329.482782,-75537.016103
28676.688383,2220.617826,4589.276840,-73238.729609
28676.690940,5477.523971,5477.523971,-74770.920605
28676.693497,-444.123565,7254.018232,-76915.987999
28676.696054,3108.864956,6809.894666,-75537.016103
28676.698612,6217.729913,5773.606348,-75077.358804
28676.701169,5773.606348,3997.112087,-76303.111601
28676.703726,7402.059420,1776.494261,-75843.454302
28676.706283,5773.606348,5625.565159,-74464.482406
28676.708840,3108.864956,5329.482782,-75843.454302
28676.711397,2664.741391,7105.977043,-76762.768900
28676.713954,8290.306550,2368.659014,-75690.235202
28676.716512,4737.318029,1332.370696,-74311.263306
28676.719069,-2072.576638,296.082377,-75537.016103
28676.721626,2516.700203,2516.700203,-76456.330700
28676.724183,3108.864956,1776.494261,-75230.577904
28676.726740,8586.388927,-3108.864956,-74617.701505
28676.729297,1924.535449,444.123565,-74924.139704
28676.731854,14211.954086,7846.182985,-76456.330700
28676.734412,-2072.576638,7994.224174,-74617.701505
28676.736969,-20725.766376,19097.313304,-74004.825107
28676.739526,8290.306550,13027.624579,-75996.673402
28676.742083,-9622.677246,11103.089130,-74004.825107
28676.744577,15692.365970,6365.771101,-74311.263306
28676.747071,2072.576638,7698.141797,-74617.701505
28676.749565,1628.453072,5033.400406,-76609.549800
28676.752060,-4145.153275,3849.070898,-76303.111601
28676.754554,-8290.306550,5921.647536,-75383.797003
28676.757048,2220.617826,10807.006753,-74004.825107
28676.759542,-592.164754,14359.995275,-74311.263306
28676.762036,4293.194464,15840.407159,-74770.920605
28676.764530,-2960.823768,11251.130318,-74617.701505
28676.767024,-3849.070898,2812.782580,-75537.016103
28676.769519,-2072.576638,5033.400406,-74004.825107
28676.772013,2368.659014,11695.253884,-75230.577904
28676.774507,-4589.276840,8438.347739,-77069.207099
28676.777001,17468.860231,1924.535449,-76609.549800
28676.779495,-13767.830521,8882.471304,-71859.757712
28676.781989,3997.112087,3701.029710,-74158.044206
28676.784483,-6809.894666,8290.306550,-77222.426198
28676.786978,1924.535449,11103.089130,-75690.235202
28676.789472,296.082377,13323.706956,-73851.606007
28676.791966,-9178.553681,11103.089130,-75230.577904
28676.794460,1628.453072,10955.047942,-74770.920605
28676.796954,-5329.482782,14804.118840,-72472.634111
28676.799448,4293.194464,10807.006753,-74617.701505
28676.801942,444.123565,6957.935855,-75996.673402
28676.804437,-2812.782580,4737.318029,-75383.797003
28676.806931,1480.411884,6217.729913,-74311.263306
28676.809425,2368.659014,2072.576638,-75843.454302
28676.811919,-1776.494261,7105.977043,-75690.235202
28676.814413,-6217.729913,16284.530724,-74464.482406
28676.816907,13915.871710,9474.636058,-75996.673402
28676.819401,-5625.565159,3701.029710,-74004.825107
28676.821895,9918.759623,2664.741391,-74158.044206
28676.824390,11695.253884,-148.041188,-76456.330700
28676.826884,4737.318029,-3256.906145,-75996.673402
28676.829378,5921.647536,-148.041188,-75996.673402
28676.831872,-4885.359217,7402.059420,-76303.111601
28676.834366,-1184.329507,10658.965565,-74464.482406
28676.836860,8290.306550,7698.141797,-74158.044206
28676.839354,9178.553681,4737.318029,-75077.358804
28676.841849,11251.130318,2960.823768,-75690.235202
28676.844372,4145.153275,3552.988522,-75690.235202
28676.846895,1036.288319,-148.041188,-77682.083497
28676.849418,-592.164754,3108.864956,-76303.111601
28676.851942,5329.482782,4885.359217,-75230.577904
28676.854465,10510.924376,2220.617826,-75230.577904
28676.856988,2220.617826,5033.400406,-73851.606007
28676.859511,11843.295072,5329.482782,-76303.111601
28676.862035,-7698.141797,7994.224174,-76762.768900
28676.864558,4737.318029,7254.018232,-74770.920605
28676.867081,592.164754,3404.947333,-75383.797003
28676.869604,10362.883188,1776.494261,-75537.016103
28676.872128,5921.647536,4441.235652,-74004.825107
28676.874651,2516.700203,7550.100608,-75537.016103
28676.877174,10807.006753,6069.688724,-76609.549800
28676.879697,-5033.400406,592.164754,-76915.987999
28676.882221,9770.718434,2516.700203,-75077.358804
28676.884744,-7846.182985,3404.947333,-74311.263306
28676.887267,7698.141797,3256.906145,-75537.016103
28676.889790,7846.182985,-1628.453072,-75996.673402
28676.892314,10214.842000,-6661.853478,-75230.577904
28676.894837,-2516.700203,3404.947333,-75230.577904
28676.897360,17172.777854,6069.688724,-77222.426198
28676.899883,-18949.272115,11103.089130,-75383.797003
28676.902407,-2960.823768,20133.601622,-74158.044206
28676.904930,-2960.823768,17024.736666,-74158.044206
28676.907453,1332.370696,11399.171507,-72472.634111
28676.909976,10955.047942,5477.523971,-75230.577904
28676.912499,-3256.906145,4885.359217,-76303.111601
28676.915023,-5773.606348,6513.812290,-75690.235202
28676.917546,444.123565,2368.659014,-76303.111601
28676.920069,-10955.047942,4737.318029,-74924.139704
28676.922592,10214.842000,9770.718434,-74311.263306
28676.925116,-3552.988522,16728.654289,-74004.825107
28676.927639,9326.594869,16432.571912,-75230.577904
28676.930162,-10510.924376,11843.295072,-75230.577904
28676.932685,-444.123565,-1776.494261,-76456.330700
28676.935209,-1184.329507,10214.842000,-73545.167808
28676.937732,6217.729913,8438.347739,-78754.617194
28676.940255,-2664.741391,8142.265362,-76149.892501
28676.942778,4145.153275,1776.494261,-74158.044206
28676.945322,-7846.182985,6365.771101,-71859.757712
28676.947866,-148.041188,6957.935855,-75537.016103
28676.950410,-2664.741391,10955.047942,-76303.111601
28676.952954,-1036.288319,14063.912898,-74311.263306
28676.955498,2812.782580,10955.047942,-74004.825107
28676.958041,-8290.306550,11103.089130,-75230.577904
28676.960585,7550.100608,10066.800811,-74924.139704
28676.963129,-6069.688724,9474.636058,-74004.825107
28676.965673,6513.812290,5773.606348,-75843.454302
28676.968217,-7698.141797,5921.647536,-75996.673402
28676.970761,6217.729913,5921.647536,-75843.454302
28676.973304,-1628.453072,5329.482782,-74924.139704
28676.975848,-3552.988522,8290.306550,-75383.797003
28676.978392,-7550.100608,18209.066173,-74464.482406
28676.980936,19541.436869,5329.482782,-76915.987999
28676.983480,-13175.665768,3108.864956,-73545.167808
28676.986024,24426.796086,1036.288319,-75537.016103
28676.988567,7550.100608,-1628.453072,-75996.673402
28676.991111,296.082377,-2960.823768,-75843.454302
28676.993655,4885.359217,2220.617826,-76149.892501
28676.996199,-6957.935855,9770.718434,-76303.111601
28676.998743,444.123565,11695.253884,-74464.482406
28677.001287,11843.295072,7105.977043,-74770.920605
28677.003830,4737.318029,3849.070898,-74924.139704
28677.006374,17320.819043,1628.453072,-75690.235202
28677.008918,-3701.029710,1628.453072,-75383.797003
28677.011462,5773.606348,2516.700203,-76915.987999
28677.014006,-4885.359217,7698.141797,-74004.825107
28677.016549,5625.565159,4441.235652,-75537.016103
28677.019093,8290.306550,2368.659014,-74158.044206
28677.021637,7105.977043,2664.741391,-75077.358804
28677.024181,3404.947333,8882.471304,-76149.892501
28677.026725,-444.123565,7105.977043,-76762.768900
28677.029269,3404.947333,5625.565159,-74617.701505
28677.031812,6217.729913,2072.576638,-74924.139704
28677.034356,7846.182985,2220.617826,-75996.673402
28677.036900,5773.606348,5329.482782,-74464.482406
28677.039444,10955.047942,5921.647536,-75383.797003
28677.041988,-2664.741391,3552.988522,-76303.111601
28677.044532,2072.576638,3404.947333,-75843.454302
28677.047092,-3256.906145,3108.864956,-74924.139704
28677.049652,5329.482782,2072.576638,-76149.892501
28677.052212,12583.501014,-2812.782580,-76609.549800
28677.054772,7994.224174,-6217.729913,-75843.454302
28677.057332,-1628.453072,1776.494261,-75230.577904
28677.059892,11399.171507,4737.318029,-77528.864398
28677.062452,-25018.960840,12583.501014,-74311.263306
28677.065013,1924.535449,21021.848753,-74158.044206
28677.067573,-3849.070898,19837.519246,-72779.072310
28677.070133,3701.029710,12287.418637,-72932.291410
28677.072693,11251.130318,5181.441594,-75383.797003
28677.075253,-1480.411884,3404.947333,-76762.768900
28677.077813,-6513.812290,2072.576638,-77069.207099
28677.080373,1184.329507,3108.864956,-77222.426198
28677.082933,-11399.171507,5033.400406,-75537.016103
28677.085494,14063.912898,10362.883188,-74770.920605
28677.088054,-5625.565159,17024.736666,-73085.510509
28677.090614,4293.194464,15396.283594,-75077.358804
28677.093174,-13323.706956,7698.141797,-75383.797003
28677.095734,-2960.823768,3108.864956,-74004.825107
28677.098294,2812.782580,8882.471304,-73698.386908
28677.100854,4441.235652,7846.182985,-77988.521696
28677.103414,3997.112087,5773.606348,-76456.330700
28677.105975,-2812.782580,5033.400406,-72319.415011
28677.108535,-592.164754,5181.441594,-74464.482406
28677.111095,-9770.718434,8438.347739,-77069.207099
28677.113655,1628.453072,14359.995275,-76456.330700
28677.116215,-592.164754,15248.242405,-74924.139704
28677.118775,-148.041188,12879.583391,-74617.701505
28677.121335,4145.153275,7550.100608,-75537.016103
28677.123895,-5329.482782,6957.935855,-74617.701505
28677.126456,2368.659014,5033.400406,-74158.044206
28677.129016,-6661.853478,9030.512492,-75230.577904
28677.131576,7846.182985,7698.141797,-76149.892501
28677.134136,-148.041188,4737.318029,-74617.701505
28677.136696,-1776.494261,6661.853478,-73545.167808
28677.139256,-8290.306550,14952.160028,-74464.482406
28677.141816,17172.777854,5477.523971,-76609.549800
28677.144376,-15100.201217,2960.823768,-73391.948708
28677.146937,25759.166782,444.123565,-76915.987999
28677.149509,4293.194464,-1924.535449,-76303.111601
28677.152081,1480.411884,-2220.617826,-74158.044206
28677.154653,5181.441594,2072.576638,-76149.892501
28677.157225,-5921.647536,9918.759623,-75690.235202
28677.159797,-2072.576638,13027.624579,-73851.606007
28677.162369,10510.924376,8438.347739,-74464.482406
28677.164941,8734.430116,2072.576638,-75383.797003
28677.167513,11843.295072,592.164754,-75690.235202
28677.170086,4145.153275,740.205942,-75537.016103
28677.172658,2516.700203,2516.700203,-76762.768900
28677.175230,-2960.823768,7846.182985,-75996.673402
28677.177802,-296.082377,7105.977043,-75690.235202
28677.180374,14804.118840,296.082377,-74158.044206
28677.182946,-6809.894666,6217.729913,-73545.167808
28677.185518,10955.047942,5773.606348,-77069.207099
28677.188090,-5181.441594,6661.853478,-76456.330700
28677.190663,6365.771101,6513.812290,-74158.044206
28677.193235,3404.947333,296.082377,-75077.358804
28677.195807,8290.306550,3997.112087,-74311.263306
28677.198379,12879.583391,5329.482782,-74311.263306
28677.200951,3108.864956,3849.070898,-75383.797003
28677.203523,6217.729913,4293.194464,-76609.549800
28677.206095,-6365.771101,4293.194464,-75690.235202
28677.208667,2664.741391,2072.576638,-75537.016103
28677.211239,11399.171507,-2368.659014,-76456.330700
28677.213812,11399.171507,-4885.359217,-75843.454302
28677.216384,-888.247130,1332.370696,-74004.825107
28677.218956,17024.736666,3701.029710,-76609.549800
28677.221528,-16728.654289,7254.018232,-75843.454302
28677.224100,-19097.313304,21614.013506,-73391.948708
28677.226672,4589.276840,21169.889941,-73545.167808
28677.229244,-2812.782580,15396.283594,-73085.510509
28677.231816,17912.983796,6513.812290,-75383.797003
28677.234388,-1184.329507,3701.029710,-76609.549800
28677.236961,-3701.029710,-148.041188,-77222.426198
28677.239533,-5033.400406,1628.453072,-76915.987999
28677.242105,-9474.636058,4441.235652,-76456.330700
28677.244677,5921.647536,12287.418637,-74617.701505
28677.247249,-1184.329507,17024.736666,-72779.072310
28677.249821,2072.576638,15544.324782,-73851.606007
28677.252401,-5921.647536,9474.636058,-76149.892501
28677.254980,-7846.182985,2664.741391,-75077.358804
28677.257560,2812.782580,5921.647536,-74770.920605
28677.260140,-1036.288319,11843.295072,-75996.673402
28677.262719,6513.812290,7550.100608,-76915.987999
28677.265299,444.123565,3256.906145,-74617.701505
28677.267879,-14063.912898,5921.647536,-72472.634111
28677.270458,-592.164754,9178.553681,-76609.549800
28677.273038,-6809.894666,15248.242405,-76915.987999
28677.275618,4441.235652,16580.613101,-74004.825107
28677.278197,1036.288319,15100.201217,-73851.606007
28677.280777,5773.606348,4737.318029,-75843.454302
28677.283357,-6365.771101,4441.235652,-74158.044206
28677.285936,-1924.535449,4737.318029,-74924.139704
28677.288516,-2368.659014,10066.800811,-76149.892501
28677.291096,6069.688724,7846.182985,-76303.111601
28677.293675,-1036.288319,5773.606348,-74770.920605
28677.296255,-6069.688724,12139.377449,-73238.729609
28677.298835,11843.295072,10807.006753,-75383.797003
28677.301414,-1924.535449,3108.864956,-74311.263306
28677.303994,-3108.864956,5921.647536,-73851.606007
28677.306574,25759.166782,148.041188,-77375.645298
28677.309153,2812.782580,-5329.482782,-76149.892501
28677.311733,6217.729913,-296.082377,-74924.139704
28677.314313,-1480.411884,5477.523971,-76303.111601
28677.316892,-6957.935855,11251.130318,-75383.797003
28677.319472,5033.400406,12435.459826,-73698.386908
28677.322052,9770.718434,6513.812290,-74770.920605
28677.324631,7994.224174,1776.494261,-74924.139704
28677.327211,12879.583391,-1332.370696,-75690.235202
28677.329791,148.041188,444.123565,-76609.549800
28677.332370,888.247130,9178.553681,-75996.673402
28677.334950,-6365.771101,8438.347739,-75996.673402
28677.337529,15840.407159,888.247130,-75996.673402
28677.340109,-5329.482782,5181.441594,-72779.072310
28677.342689,19245.354492,3404.947333,-76456.330700
28677.345268,-2960.823768,8290.306550,-77375.645298
28677.347848,6661.853478,6661.853478,-75843.454302
28677.350428,5773.606348,1480.411884,-75077.358804
28677.353007,2812.782580,3552.988522,-75537.016103
28677.355593,17172.777854,3552.988522,-74617.701505
28677.358178,-1924.535449,4737.318029,-74464.482406
28677.360764,5181.441594,4293.194464,-76762.768900
28677.363349,-6809.894666,4885.359217,-75996.673402
28677.365935,3256.906145,-148.041188,-75843.454302
28677.368521,11251.130318,-5181.441594,-75996.673402
28677.371106,7402.059420,-3404.947333,-75690.235202
28677.373692,1628.453072,4885.359217,-76762.768900
28677.376277,21317.931130,3108.864956,-77069.207099
28677.378863,-34641.638086,11103.089130,-73545.167808
28677.381448,3701.029710,16876.695478,-75690.235202
28677.384034,444.123565,20429.683999,-72319.415011
28677.386619,148.041188,14063.912898,-72166.195912
28677.389205,11103.089130,9030.512492,-75383.797003
28677.391790,3404.947333,2368.659014,-76456.330700
28677.394376,-14359.995275,1776.494261,-74004.825107
28677.396961,4885.359217,-592.164754,-76456.330700
28677.399547,-15544.324782,6661.853478,-74617.701505
28677.402132,14804.118840,12287.418637,-75383.797003
28677.404718,-1628.453072,18357.107362,-73238.729609
28677.407303,5773.606348,14656.077652,-75230.577904
28677.409889,-9622.677246,7254.018232,-75537.016103
28677.412474,1036.288319,1480.411884,-75077.358804
28677.415060,-6809.894666,10214.842000,-73391.948708
28677.417645,11843.295072,7994.224174,-77682.083497
28677.420231,0.000000,10214.842000,-75383.797003
28677.422816,1924.535449,3849.070898,-73545.167808
28677.425402,-12435.459826,8142.265362,-72932.291410
28677.427987,-2516.700203,9918.759623,-76456.330700
28677.430573,-6809.894666,19393.395680,-74924.139704
28677.433158,9770.718434,17024.736666,-75383.797003
28677.435744,-444.123565,8438.347739,-74158.044206
28677.438329,6365.771101,-148.041188,-75230.577904
28677.440915,-14804.118840,2960.823768,-74004.825107
28677.443500,4293.194464,7254.018232,-75843.454302
28677.446086,-2368.659014,11991.336260,-76149.892501
28677.448671,2220.617826,9326.594869,-76149.892501
28677.451257,-5625.565159,12583.501014,-74311.263306
28677.453842,9030.512492,9918.759623,-74158.044206
28677.456428,-6365.771101,-444.123565,-74158.044206
28677.459016,5181.441594,3404.947333,-75383.797003
28677.461604,19985.560434,1776.494261,-76609.549800
28677.464192,1332.370696,-3997.112087,-77069.207099
28677.466781,9030.512492,-1924.535449,-76456.330700
28677.469369,-3256.906145,4145.153275,-75077.358804
28677.471957,-4737.318029,9622.677246,-74617.701505
28677.474545,3849.070898,12139.377449,-73698.386908
28677.477133,6513.812290,8586.388927,-75383.797003
28677.479722,11103.089130,2516.700203,-75537.016103
28677.482310,6957.935855,-2368.659014,-75996.673402
28677.484898,444.123565,-2664.741391,-76303.111601
28677.487486,-1776.494261,7846.182985,-74617.701505
28677.490074,3701.029710,9326.594869,-75230.577904
28677.492663,2960.823768,3108.864956,-74158.044206
28677.495251,5921.647536,3701.029710,-73391.948708
28677.497839,6217.729913,6513.812290,-75383.797003
28677.500427,4737.318029,5477.523971,-77069.207099
28677.503015,1924.535449,7254.018232,-75077.358804
28677.505604,7846.182985,2220.617826,-74770.920605
28677.508192,10658.965565,592.164754,-75537.016103
28677.510780,4293.194464,3256.906145,-75383.797003
28677.513368,888.247130,6365.771101,-74924.139704
28677.515956,1924.535449,5329.482782,-76915.987999
28677.518544,-5329.482782,3256.906145,-75537.016103
28677.521133,15544.324782,-4441.235652,-75077.358804
28677.523721,3701.029710,-7994.224174,-74924.139704
28677.526309,-1036.288319,-888.247130,-75996.673402
28677.528897,21762.054695,4589.276840,-77222.426198
28677.531485,-27979.784608,11399.171507,-75383.797003
28677.534074,-1332.370696,20873.807564,-75077.358804
28677.536662,2368.659014,19985.560434,-72625.853210
28677.539250,-3849.070898,12435.459826,-72932.291410
28677.541838,13471.748144,6809.894666,-75843.454302
28677.544426,4441.235652,5181.441594,-75843.454302
28677.547015,-6365.771101,3552.988522,-75843.454302
28677.549603,-148.041188,1628.453072,-76303.111601
28677.552191,-13767.830521,3404.947333,-75230.577904
28677.554779,11843.295072,11399.171507,-74311.263306
28677.557367,740.205942,16580.613101,-73545.167808
28677.559956,-1628.453072,17172.777854,-75383.797003
28677.562543,-3552.988522,9326.594869,-76303.111601
28677.565134,-6957.935855,3256.906145,-73698.386908
28677.567724,3552.988522,5921.647536,-74617.701505
28677.570314,-296.082377,9474.636058,-76762.768900
28677.572904,3552.988522,9474.636058,-74617.701505
28677.575494,-148.041188,7846.182985,-73085.510509
28677.578084,-5329.482782,7402.059420,-72625.853210
28677.580675,-9770.718434,10955.047942,-74924.139704
28677.583265,2960.823768,15840.407159,-75843.454302
28677.585855,-444.123565,17024.736666,-75077.358804
28677.588445,6809.894666,11547.212695,-75383.797003
28677.591035,-444.123565,1184.329507,-75077.358804
28677.593626,-3997.112087,3552.988522,-73851.606007
28677.596216,4885.359217,6513.812290,-74311.263306
28677.598806,-4441.235652,8290.306550,-76456.330700
28677.601396,-2220.617826,13619.789333,-75996.673402
28677.603986,-4293.194464,17172.777854,-75077.358804
28677.606577,21169.889941,3552.988522,-75690.235202
28677.609167,-14804.118840,-1776.494261,-73085.510509
28677.611757,21910.095883,-296.082377,-76149.892501
28677.614347,-888.247130,148.041188,-76149.892501
28677.616937,4737.318029,-296.082377,-75690.235202
28677.619528,1480.411884,4293.194464,-76303.111601
28677.622118,-2960.823768,7846.182985,-75843.454302
28677.624708,-1036.288319,11103.089130,-73085.510509
28677.627298,8290.306550,8882.471304,-74770.920605
28677.629888,8882.471304,5773.606348,-74924.139704
28677.632479,10214.842000,1332.370696,-75996.673402
28677.635069,2368.659014,-2072.576638,-76456.330700
28677.637659,-1628.453072,592.164754,-76149.892501
28677.640249,4293.194464,7402.059420,-75383.797003
28677.642839,-2516.700203,5773.606348,-75996.673402
28677.645379,9622.677246,4293.194464,-73238.729609
28677.647918,3997.112087,2960.823768,-74311.263306
28677.650457,6217.729913,5477.523971,-76609.549800
28677.652997,5773.606348,5625.565159,-77375.645298
28677.655536,1924.535449,5181.441594,-75230.577904
28677.658075,12583.501014,2368.659014,-76609.549800
28677.660615,-444.123565,1628.453072,-75230.577904
28677.663154,5625.565159,5329.482782,-73851.606007
28677.665693,-1332.370696,4589.276840,-75383.797003
28677.668233,1776.494261,2960.823768,-75996.673402
28677.670772,9326.594869,-4145.153275,-76303.111601
28677.673311,6957.935855,-6661.853478,-75843.454302
28677.675851,1332.370696,296.082377,-76609.549800
28677.678390,20577.725188,1776.494261,-76915.987999
28677.680929,-26647.413912,10658.965565,-74311.263306
28677.683469,-2664.741391,21910.095883,-74311.263306
28677.686008,1332.370696,21910.095883,-73238.729609
28677.688547,-3849.070898,14211.954086,-72319.415011
28677.691087,14063.912898,6365.771101,-75230.577904
28677.693626,1184.329507,3997.112087,-76456.330700
28677.696165,-3701.029710,4441.235652,-75230.577904
28677.698705,-4589.276840,2516.700203,-76609.549800
28677.701244,-7105.977043,4441.235652,-75383.797003
28677.703783,6661.853478,9918.759623,-73851.606007
28677.706323,5477.523971,16284.530724,-73391.948708
28677.708862,-5921.647536,15544.324782,-74617.701505
28677.711401,-1480.411884,7402.059420,-75843.454302
28677.713941,-6957.935855,6661.853478,-73698.386908
28677.716480,-5033.400406,7402.059420,-73851.606007
28677.719019,10214.842000,7846.182985,-76762.768900
28677.721559,-1776.494261,9770.718434,-75230.577904
28677.724098,3849.070898,7550.100608,-73545.167808
28677.726637,-14211.954086,10658.965565,-73851.606007
28677.729177,740.205942,12139.377449,-75383.797003
28677.731716,-2368.659014,15840.407159,-75230.577904
28677.734255,3404.947333,14952.160028,-74617.701505
28677.736795,4589.276840,6069.688724,-74617.701505
28677.739334,-2220.617826,3256.906145,-75077.358804
28677.741873,1628.453072,3701.029710,-73698.386908
28677.744413,-2664.741391,6365.771101,-75383.797003
28677.746965,-1480.411884,10362.883188,-76456.330700
28677.749516,-8142.265362,17764.942608,-75690.235202
28677.752068,18357.107362,11103.089130,-75690.235202
28677.754620,-6365.771101,148.041188,-73698.386908
28677.757172,7698.141797,-1332.370696,-75996.673402
28677.759724,7994.224174,-888.247130,-76915.987999
28677.762276,4885.359217,-2368.659014,-76915.987999
28677.764828,6365.771101,3108.864956,-76915.987999
28677.767380,-2960.823768,6513.812290,-76303.111601
28677.769932,-5033.400406,10214.842000,-74311.263306
28677.772483,7254.018232,9622.677246,-73698.386908
28677.775035,4589.276840,7698.141797,-74464.482406
28677.777587,13767.830521,3701.029710,-75843.454302
28677.780139,6069.688724,444.123565,-76456.330700
28677.782691,-296.082377,-1332.370696,-77069.207099
28677.785243,296.082377,8290.306550,-75077.358804
28677.787795,148.041188,7105.977043,-76149.892501
28677.790347,6809.894666,4441.235652,-74464.482406
28677.792899,3997.112087,3108.864956,-72932.291410
28677.795451,9178.553681,5033.400406,-75383.797003
28677.798002,6069.688724,4589.276840,-77835.302597
28677.800554,10362.883188,5033.400406,-75690.235202
28677.803106,-148.041188,1332.370696,-74924.139704
28677.805658,7698.141797,1332.370696,-75843.454302
28677.808210,-7105.977043,5033.400406,-73851.606007
28677.810762,11399.171507,3552.988522,-75077.358804
28677.813314,-2664.741391,1184.329507,-76149.892501
28677.815866,18949.272115,-4885.359217,-77375.645298
28677.818418,-740.205942,-2812.782580,-74158.044206
28677.820969,8882.471304,3552.988522,-76762.768900
28677.823521,7254.018232,3849.070898,-76149.892501
28677.826073,-32421.020260,16728.654289,-73391.948708
28677.828625,16876.695478,17024.736666,-75537.016103
28677.831177,-18209.066173,20725.766376,-72779.072310
28677.833729,11695.253884,11547.212695,-73391.948708
28677.836281,4885.359217,7994.224174,-74464.482406
28677.838833,1036.288319,6069.688724,-75383.797003
28677.841385,-7254.018232,3997.112087,-76609.549800
28677.843936,-2220.617826,2072.576638,-77222.426198
28677.846488,-3404.947333,6809.894666,-74464.482406
28677.849051,6513.812290,11399.171507,-74004.825107
28677.851613,3404.947333,14211.954086,-74158.044206
28677.854175,-3256.906145,13767.830521,-74770.920605
28677.856737,148.041188,2812.782580,-77222.426198
28677.859300,-17912.983796,8882.471304,-73085.510509
28677.861862,10658.965565,8586.388927,-75537.016103
28677.864424,-4441.235652,9030.512492,-77988.521696
28677.866986,6809.894666,7846.182985,-74311.263306
28677.869549,-8882.471304,9474.636058,-73085.510509
28677.872111,-148.041188,7994.224174,-75383.797003
28677.874673,-6217.729913,14211.954086,-74617.701505
28677.877235,1036.288319,14063.912898,-75383.797003
28677.879797,5033.400406,10214.842000,-75383.797003
28677.882360,-8734.430116,7105.977043,-74617.701505
28677.884922,10214.842000,2220.617826,-75996.673402
28677.887484,-8586.388927,3701.029710,-74158.044206
28677.890046,3552.988522,6365.771101,-75230.577904
28677.892609,-13027.624579,16728.654289,-75537.016103
28677.895171,17024.736666,13915.871710,-75690.235202
28677.897733,-3552.988522,2516.700203,-73698.386908
28677.900295,2960.823768,0.000000,-75077.358804
28677.902858,11843.295072,-1776.494261,-75537.016103
28677.905420,4293.194464,-5033.400406,-77069.207099
28677.907982,5625.565159,1776.494261,-76609.549800
28677.910544,-3701.029710,6217.729913,-76149.892501
28677.913107,-444.123565,10362.883188,-74004.825107
28677.915669,4589.276840,9178.553681,-73851.606007
28677.918231,8290.306550,6809.894666,-74770.920605
28677.920793,12287.418637,2812.782580,-75383.797003
28677.923356,2664.741391,-592.164754,-76303.111601
28677.925918,-2664.741391,-2220.617826,-76915.987999
28677.928480,7402.059420,7550.100608,-74924.139704
28677.931042,-296.082377,7105.977043,-74924.139704
28677.933605,9178.553681,6809.894666,-72166.195912
28677.936167,1480.411884,4293.194464,-73391.948708
28677.938729,9918.759623,4145.153275,-75996.673402
28677.941291,4885.359217,4737.318029,-76915.987999
28677.943854,7994.224174,4441.235652,-74311.263306
28677.946416,2516.700203,3849.070898,-75690.235202
28677.948978,3256.906145,444.123565,-75843.454302
28677.951547,-444.123565,6661.853478,-74770.920605
28677.954116,3849.070898,1628.453072,-75230.577904
28677.956686,13767.830521,-4145.153275,-77375.645298
28677.959255,4737.318029,-4737.318029,-76149.892501
28677.961824,-4293.194464,444.123565,-74617.701505
28677.964393,19541.436869,3404.947333,-76915.987999
28677.966962,-18653.189738,7402.059420,-74770.920605
28677.969532,-10066.800811,23390.507767,-74158.044206
28677.972101,9030.512492,19985.560434,-73698.386908
28677.974670,-11695.253884,16432.571912,-72932.291410
28677.977239,11399.171507,8290.306550,-74770.920605
28677.979808,-444.123565,4885.359217,-75996.673402
28677.982377,-5773.606348,2072.576638,-75537.016103
28677.984947,-1480.411884,2664.741391,-76456.330700
28677.987516,-8882.471304,4293.194464,-76762.768900
28677.990085,6365.771101,10955.047942,-73391.948708
28677.992654,4441.235652,15248.242405,-72319.415011
28677.995223,296.082377,15248.242405,-75383.797003
28677.997792,-8734.430116,7105.977043,-75383.797003
28678.000362,1480.411884,4885.359217,-73545.167808
28678.002931,-6809.894666,9030.512492,-74158.044206
28678.005500,6957.935855,7846.182985,-77682.083497
28678.008069,-3108.864956,10510.924376,-76303.111601
28678.010638,4885.359217,8438.347739,-74004.825107
28678.013208,-10510.924376,10955.047942,-72932.291410
28678.015777,1776.494261,10214.842000,-75690.235202
28678.018346,-4441.235652,15248.242405,-75537.016103
28678.020915,5477.523971,13175.665768,-74464.482406
28678.023484,-6661.853478,9178.553681,-75383.797003
28678.026053,8882.471304,3108.864956,-75230.577904
28678.028623,-3552.988522,1924.535449,-73545.167808
28678.031192,-1332.370696,4589.276840,-75230.577904
28678.033761,-9326.594869,15544.324782,-76303.111601
28678.036330,14804.118840,13323.706956,-75843.454302
28678.038899,-9030.512492,2516.700203,-73391.948708
28678.041468,19393.395680,444.123565,-75996.673402
28678.044038,11843.295072,-2516.700203,-75537.016103
28678.046607,1036.288319,-5477.523971,-75996.673402
28678.049176,6513.812290,444.123565,-76762.768900
28678.051745,-5181.441594,6513.812290,-76456.330700
28678.054320,-444.123565,10807.006753,-74464.482406
28678.056895,4293.194464,10510.924376,-73698.386908
28678.059470,10510.924376,5329.482782,-75383.797003
28678.062045,11251.130318,3108.864956,-75537.016103
28678.064619,3108.864956,444.123565,-76149.892501
28678.067194,5477.523971,-3997.112087,-77682.083497
28678.069769,-3997.112087,9178.553681,-75690.235202
28678.072344,6513.812290,5625.565159,-76303.111601
28678.074919,444.123565,3256.906145,-74464.482406
28678.077494,12879.583391,3997.112087,-71859.757712
28678.080068,1924.535449,4737.318029,-75843.454302
28678.082643,13323.706956,5181.441594,-78141.740796
28678.085218,-3849.070898,4885.359217,-75230.577904
28678.087793,11399.171507,3256.906145,-75843.454302
28678.090368,-10362.883188,3849.070898,-75537.016103
28678.092943,12731.542202,2812.782580,-74924.139704
28678.095518,1480.411884,148.041188,-74311.263306
28678.098092,18357.107362,-6809.894666,-77682.083497
28678.100667,-3997.112087,-1184.329507,-75537.016103
28678.103242,10362.883188,5181.441594,-76915.987999
28678.105817,444.123565,5773.606348,-75843.454302
28678.108392,-29164.114115,18209.066173,-74004.825107
28678.110967,18801.230927,16728.654289,-74770.920605
28678.113541,-14952.160028,19393.395680,-72779.072310
28678.116116,16136.489536,11991.336260,-73851.606007
28678.118691,1184.329507,7550.100608,-75230.577904
28678.121266,-1036.288319,6661.853478,-75230.577904
28678.123841,-6661.853478,3701.029710,-75077.358804
28678.126416,-6069.688724,3108.864956,-77222.426198
28678.128990,888.247130,8142.265362,-74770.920605
28678.131565,3849.070898,12731.542202,-73545.167808
28678.134140,3849.070898,15100.201217,-74158.044206
28678.136715,-740.205942,12139.377449,-74770.920605
28678.139290,-8438.347739,4589.276840,-74158.044206
28678.141865,9326.594869,5625.565159,-74464.482406
28678.144440,-8290.306550,11547.212695,-75690.235202
28678.147014,12139.377449,10066.800811,-77222.426198
28678.149589,-7105.977043,11695.253884,-75077.358804
28678.152164,5477.523971,8882.471304,-74311.263306
28678.154739,-9178.553681,11103.089130,-72779.072310
28678.157318,-1776.494261,12287.418637,-75996.673402
28678.159897,-888.247130,14359.995275,-75230.577904
28678.162477,-1776.494261,11251.130318,-75383.797003
28678.165056,8438.347739,5033.400406,-75230.577904
28678.167635,-2664.741391,1332.370696,-74617.701505
28678.170214,-2516.700203,3849.070898,-74617.701505
28678.172794,-10807.006753,15248.242405,-75537.016103
28678.175373,16136.489536,9770.718434,-76762.768900
28678.177952,-7994.224174,4145.153275,-74004.825107
28678.180531,18357.107362,2220.617826,-74924.139704
28678.183111,13767.830521,-1036.288319,-75537.016103
28678.185690,444.123565,-3701.029710,-75843.454302
28678.188269,6069.688724,1184.329507,-76915.987999
28678.190848,-7105.977043,6513.812290,-76303.111601
28678.193428,2960.823768,10066.800811,-74464.482406
28678.196007,4441.235652,8438.347739,-74311.263306
28678.198586,10362.883188,6957.935855,-74311.263306
28678.201165,7402.059420,5033.400406,-75690.235202
28678.203744,8290.306550,740.205942,-75996.673402
28678.206324,6069.688724,1036.288319,-76456.330700
28678.208903,-3997.112087,8290.306550,-75843.454302
28678.211482,6809.894666,4145.153275,-75843.454302
28678.214061,5181.441594,3108.864956,-74311.263306
28678.216641,7550.100608,3997.112087,-73085.510509
28678.219220,9474.636058,5625.565159,-75383.797003
28678.221799,4589.276840,3552.988522,-76609.549800
28678.224378,5181.441594,6069.688724,-76149.892501
28678.226958,-8142.265362,2516.700203,-74617.701505
28678.229537,7846.182985,2960.823768,-76149.892501
28678.232116,1332.370696,-592.164754,-74617.701505
28678.234695,17320.819043,-3701.029710,-74924.139704
28678.237275,4145.153275,-4145.153275,-75077.358804
28678.239854,592.164754,1776.494261,-77682.083497
28678.242433,15248.242405,5181.441594,-77375.645298
28678.245012,-18357.107362,6809.894666,-74617.701505
28678.247592,7254.018232,18505.148550,-75230.577904
28678.250171,-9474.636058,21465.972318,-71706.538613
28678.252750,4589.276840,14952.160028,-72319.415011
28678.255329,8882.471304,9622.677246,-75077.358804
28678.257908,-6217.729913,5921.647536,-75690.235202
28678.260445,-2072.576638,4441.235652,-75996.673402
28678.262981,-7698.141797,3404.947333,-76303.111601
28678.265517,-1332.370696,4589.276840,-75383.797003
28678.268053,8438.347739,9326.594869,-74004.825107
28678.270589,0.000000,15988.448347,-73698.386908
28678.273125,-1036.288319,13619.789333,-75690.235202
28678.275661,-5773.606348,4589.276840,-77528.864398
28678.278197,-4885.359217,5625.565159,-73545.167808
28678.280734,740.205942,8586.388927,-75230.577904
28678.283270,1628.453072,9178.553681,-76762.768900
28678.285806,1480.411884,11399.171507,-75843.454302
28678.288342,-6217.729913,10066.800811,-73698.386908
28678.290878,-2072.576638,10362.883188,-74311.263306
28678.293414,-2812.782580,13471.748144,-74617.701505
28678.295950,-4737.318029,12583.501014,-75537.016103
28678.298486,-2072.576638,13767.830521,-75077.358804
28678.301022,8438.347739,6809.894666,-74924.139704
28678.303559,888.247130,592.164754,-75383.797003
28678.306095,-4737.318029,4145.153275,-74311.263306
28678.308631,-7698.141797,14508.036463,-75383.797003
28678.311167,14804.118840,7698.141797,-77222.426198
28678.313703,-8882.471304,2812.782580,-74004.825107
28678.316239,22354.219448,1776.494261,-75230.577904
28678.318775,13471.748144,-1924.535449,-75690.235202
28678.321311,-740.205942,-3701.029710,-75843.454302
28678.323847,9326.594869,592.164754,-75843.454302
28678.326384,-8586.388927,5625.565159,-76456.330700
28678.328920,5181.441594,9622.677246,-74311.263306
28678.331456,3256.906145,7698.141797,-73545.167808
28678.333992,12435.459826,5033.400406,-75383.797003
28678.336528,6069.688724,4589.276840,-74924.139704
28678.339064,4737.318029,888.247130,-76149.892501
28678.341600,2072.576638,296.082377,-77222.426198
28678.344136,-444.123565,8142.265362,-74924.139704
28678.346673,11251.130318,3404.947333,-76762.768900
28678.349209,888.247130,2516.700203,-74464.482406
28678.351745,13767.830521,2072.576638,-73698.386908
28678.354281,148.041188,5625.565159,-75230.577904
28678.356817,12879.583391,7402.059420,-75843.454302
28678.359353,-8290.306550,6365.771101,-74311.263306
28678.361902,7846.182985,888.247130,-76762.768900
28678.364450,-1924.535449,1628.453072,-75077.358804
28678.366999,21465.972318,-5181.441594,-75383.797003
28678.369547,5033.400406,-4737.318029,-74770.920605
28678.372096,740.205942,-1628.453072,-76149.892501
28678.374644,6661.853478,7402.059420,-76149.892501
28678.377193,2664.741391,6661.853478,-76149.892501
28678.379742,-27683.702231,23390.507767,-73851.606007
28678.382290,6069.688724,18801.230927,-73851.606007
28678.384839,-6365.771101,13619.789333,-73238.729609
28678.387387,16136.489536,5773.606348,-75690.235202
28678.389936,-2812.782580,5329.482782,-75843.454302
28678.392484,-5773.606348,3256.906145,-77069.207099
28678.395033,-6069.688724,6069.688724,-75996.673402
28678.397581,-9770.718434,7846.182985,-74617.701505
28678.400130,7846.182985,9178.553681,-74464.482406
28678.402679,1184.329507,14952.160028,-73238.729609
28678.405227,3552.988522,12139.377449,-74924.139704
28678.407776,-10214.842000,8734.430116,-76149.892501
28678.410324,-4589.276840,5181.441594,-74004.825107
28678.412873,-4145.153275,9326.594869,-74311.263306
28678.415421,3849.070898,7402.059420,-76915.987999
28678.417970,1776.494261,11103.089130,-75077.358804
28678.420519,3256.906145,8586.388927,-74770.920605
28678.423067,-2516.700203,11399.171507,-74464.482406
28678.425616,-5477.523971,12435.459826,-75383.797003
28678.428164,-6069.688724,13619.789333,-75843.454302
28678.430713,-592.164754,12435.459826,-75230.577904
28678.433261,6365.771101,7994.224174,-74004.825107
28678.435810,6365.771101,296.082377,-75383.797003
28678.438358,-10066.800811,3404.947333,-75383.797003
28678.440907,-5477.523971,14063.912898,-74158.044206
28678.443456,11251.130318,5625.565159,-76149.892501
28678.446004,-12435.459826,4441.235652,-74464.482406
28678.448553,32569.061448,296.082377,-75996.673402
28678.451101,0.000000,-1036.288319,-75383.797003
28678.453650,10066.800811,-4145.153275,-76609.549800
28678.456198,-1480.411884,740.205942,-75996.673402
28678.458747,-3997.112087,7846.182985,-76303.111601
28678.461296,3404.947333,8586.388927,-74770.920605
28678.463810,4589.276840,7846.182985,-74311.263306
28678.466325,13323.706956,5181.441594,-75690.235202
28678.468839,1480.411884,2664.741391,-74924.139704
28678.471354,9770.718434,1184.329507,-75996.673402
28678.473868,-5773.606348,2812.782580,-76149.892501
28678.476383,7254.018232,9622.677246,-75383.797003
28678.478897,-3849.070898,2516.700203,-76762.768900
28678.481412,17764.942608,1036.288319,-74004.825107
28678.483926,-444.123565,2072.576638,-74617.701505
28678.486441,17024.736666,5329.482782,-77069.207099
28678.488955,-5477.523971,5921.647536,-76609.549800
28678.491470,1036.288319,6809.894666,-75537.016103
28678.493984,-2072.576638,2368.659014,-75843.454302
28678.496499,9918.759623,-1480.411884,-76762.768900
28678.499013,12583.501014,-5773.606348,-74311.263306
28678.501528,11399.171507,-6661.853478,-74770.920605
28678.504042,-4145.153275,4293.194464,-76915.987999
28678.506557,17764.942608,3552.988522,-77528.864398
28678.509071,-39526.997303,13915.871710,-74311.263306
28678.511586,17024.736666,17468.860231,-75690.235202
28678.514100,-17172.777854,23538.548956,-70634.004916
28678.516615,11547.212695,14359.995275,-72319.415011
28678.519130,6217.729913,8142.265362,-74004.825107
28678.521644,-3552.988522,4441.235652,-75690.235202
28678.524159,-10955.047942,4589.276840,-75690.235202
28678.526673,-7994.224174,4441.235652,-77069.207099
28678.529188,740.205942,7550.100608,-75537.016103
28678.531702,5033.400406,10807.006753,-72779.072310
28678.534217,5921.647536,15988.448347,-72319.415011
28678.536731,-3256.906145,9030.512492,-76303.111601
28678.539246,-3256.906145,4589.276840,-76762.768900
28678.541760,-8142.265362,8290.306550,-73698.386908
28678.544275,0.000000,8882.471304,-75690.235202
28678.546789,2516.700203,8734.430116,-75690.235202
28678.549304,6069.688724,10214.842000,-73698.386908
28678.551818,-2960.823768,11251.130318,-73085.510509
28678.554333,-1776.494261,11547.212695,-75077.358804
28678.556847,-12287.418637,14508.036463,-74617.701505
28678.559362,0.000000,13323.706956,-75537.016103
28678.561876,-740.205942,10807.006753,-74617.701505
28678.564409,10362.883188,592.164754,-74924.139704
28678.566941,-12435.459826,3997.112087,-74617.701505
28678.569473,-740.205942,12583.501014,-75230.577904
28678.572006,10066.800811,7698.141797,-76149.892501
28678.574538,-14211.954086,4293.194464,-75077.358804
28678.577070,27831.743419,148.041188,-75996.673402
28678.579602,4145.153275,148.041188,-74617.701505
28678.582135,11103.089130,-5181.441594,-76456.330700
28678.584667,1924.535449,-444.123565,-77222.426198
28678.587199,-6513.812290,7846.182985,-75230.577904
28678.589731,2812.782580,9178.553681,-74617.701505
28678.592263,3108.864956,8290.306550,-74158.044206
28678.594796,11843.295072,4589.276840,-74617.701505
28678.597328,7105.977043,1924.535449,-74770.920605
28678.599860,9474.636058,296.082377,-75843.454302
28678.602392,-4293.194464,4589.276840,-75690.235202
28678.604925,4737.318029,7254.018232,-76762.768900
28678.607457,1480.411884,4145.153275,-75843.454302
28678.609989,14804.118840,1184.329507,-73851.606007
28678.612521,4441.235652,2220.617826,-73545.167808
28678.615054,11695.253884,4293.194464,-77069.207099
28678.617586,296.082377,7105.977043,-76149.892501
28678.620118,-4145.153275,6069.688724,-76456.330700
28678.622650,1480.411884,6069.688724,-73698.386908
28678.625182,14656.077652,-4737.318029,-76915.987999
28678.627715,10362.883188,-6513.812290,-74464.482406
28678.630247,7994.224174,-2960.823768,-74311.263306
28678.632779,-740.205942,3404.947333,-77835.302597
28678.635311,13175.665768,4293.194464,-77682.083497
28678.637844,-39675.038491,19837.519246,-73238.729609
28678.640376,18061.024985,17172.777854,-76149.892501
28678.642908,-12879.583391,21762.054695,-71859.757712
28678.645440,18801.230927,8438.347739,-74770.920605
28678.647973,3552.988522,4737.318029,-75537.016103
28678.650505,-8290.306550,3997.112087,-75843.454302
28678.653037,-8142.265362,6069.688724,-74311.263306
28678.655569,-6217.729913,6809.894666,-76609.549800
28678.658102,-888.247130,9622.677246,-75077.358804
28678.660634,7846.182985,13323.706956,-72932.291410
28678.663166,9326.594869,14359.995275,-73545.167808
28678.665670,-7698.141797,5625.565159,-75537.016103
28678.668174,5625.565159,5033.400406,-75690.235202
28678.670678,-17024.736666,12287.418637,-75230.577904
28678.673182,10214.842000,10510.924376,-77069.207099
28678.675686,-4293.194464,10066.800811,-76609.549800
28678.678190,8438.347739,9474.636058,-74311.263306
28678.680694,-4145.153275,12731.542202,-72625.853210
28678.683198,-5181.441594,11695.253884,-75383.797003
28678.685703,-9030.512492,15988.448347,-76609.549800
28678.688207,-296.082377,13175.665768,-74311.263306
28678.690711,11991.336260,3256.906145,-75996.673402
28678.693215,-5625.565159,1184.329507,-75690.235202
28678.695719,-3108.864956,8438.347739,-75230.577904
28678.698223,13027.624579,7105.977043,-75383.797003
28678.700727,-12287.418637,2960.823768,-74464.482406
28678.703231,14359.995275,4441.235652,-76303.111601
28678.705735,15840.407159,2516.700203,-75843.454302
28678.708239,7698.141797,-3256.906145,-75383.797003
28678.710743,6069.688724,444.123565,-75230.577904
28678.713247,-4737.318029,2072.576638,-77222.426198
28678.715751,-444.123565,9326.594869,-75230.577904
28678.718255,3849.070898,7698.141797,-74617.701505
28678.720759,6513.812290,6513.812290,-74924.139704
28678.723263,14804.118840,3701.029710,-74311.263306
28678.725767,7105.977043,2516.700203,-74464.482406
28678.728271,-4145.153275,3997.112087,-75537.016103
28678.730776,8438.347739,7846.182985,-75843.454302
28678.733280,-6661.853478,5625.565159,-76149.892501
28678.735784,20725.766376,1776.494261,-74464.482406
28678.738288,-296.082377,1776.494261,-72779.072310
28678.740792,15100.201217,4589.276840,-76149.892501
28678.743296,-4589.276840,9326.594869,-76609.549800
28678.745800,2664.741391,5477.523971,-74770.920605
28678.748304,1628.453072,4145.153275,-75996.673402
28678.750808,10066.800811,-7994.224174,-77988.521696
28678.753312,9770.718434,-7550.100608,-74311.263306
28678.755816,6957.935855,-2664.741391,-74158.044206
28678.758320,19837.519246,4293.194464,-78754.617194
28678.760824,-20873.807564,9622.677246,-75230.577904
28678.763328,-17024.736666,25167.002028,-73698.386908
28678.765853,12879.583391,20133.601622,-73391.948708
28678.768377,-13323.706956,15988.448347,-73238.729609
28678.770901,15988.448347,5921.647536,-76303.111601
28678.773425,5625.565159,4737.318029,-75996.673402
28678.775949,-6809.894666,3404.947333,-75537.016103
28678.778474,-5033.400406,3849.070898,-76915.987999
28678.780998,-12879.583391,7550.100608,-76609.549800
28678.783522,5625.565159,13027.624579,-73545.167808
28678.786046,3108.864956,15692.365970,-73085.510509
28678.788571,9030.512492,9918.759623,-74617.701505
28678.791095,-12435.459826,6365.771101,-75843.454302
28678.793619,6809.894666,5921.647536,-74770.920605
28678.796143,-14952.160028,10362.883188,-76303.111601
28678.798667,1480.411884,10214.842000,-75843.454302
28678.801192,3701.029710,11251.130318,-74004.825107
28678.803716,148.041188,10510.924376,-73238.729609
28678.806240,-4293.194464,10066.800811,-74158.044206
28678.808764,-10510.924376,13471.748144,-75077.358804
28678.811289,296.082377,12879.583391,-75537.016103
28678.813813,740.205942,10955.047942,-74770.920605
28678.816337,6661.853478,2072.576638,-76149.892501
28678.818861,-9326.594869,7402.059420,-75077.358804
28678.821385,16580.613101,6513.812290,-75230.577904
28678.823910,-8438.347739,2812.782580,-74158.044206
28678.826434,888.247130,5921.647536,-74924.139704
28678.828958,27831.743419,1332.370696,-76762.768900
28678.831482,-888.247130,-1776.494261,-75690.235202
28678.834007,11103.089130,-1184.329507,-75537.016103
28678.836531,3997.112087,-444.123565,-76609.549800
28678.839055,-1184.329507,8438.347739,-75230.577904
28678.841579,4145.153275,8142.265362,-75077.358804
28678.844103,3256.906145,7105.977043,-75077.358804
28678.846628,16136.489536,3997.112087,-74924.139704
28678.849152,6217.729913,2072.576638,-74924.139704
28678.851676,2220.617826,740.205942,-75690.235202
28678.854200,5181.441594,6069.688724,-76456.330700
28678.856725,-740.205942,9326.594869,-75690.235202
28678.859249,7698.141797,2072.576638,-74464.482406
28678.861773,1776.494261,1184.329507,-73085.510509
28678.864297,12583.501014,2220.617826,-75996.673402
28678.866838,592.164754,7550.100608,-76456.330700
28678.869379,2368.659014,3701.029710,-77222.426198
28678.871919,1036.288319,6957.935855,-74311.263306
28678.874460,12583.501014,-6365.771101,-77528.864398
28678.877001,3256.906145,-6809.894666,-74311.263306
28678.879541,10066.800811,-2812.782580,-74464.482406
28678.882082,14804.118840,4589.276840,-76915.987999
28678.884622,-11251.130318,7994.224174,-75996.673402
28678.887163,-23094.425390,24426.796086,-73698.386908
28678.889704,15248.242405,18061.024985,-74617.701505
28678.892244,-18209.066173,17468.860231,-72779.072310
28678.894785,18801.230927,7254.018232,-76456.330700
28678.897326,4589.276840,5477.523971,-75383.797003
28678.899866,-5773.606348,4589.276840,-75537.016103
28678.902407,-9770.718434,4293.194464,-76149.892501
28678.904948,-9178.553681,6661.853478,-76303.111601
28678.907488,1036.288319,11695.253884,-73391.948708
28678.910029,0.000000,17616.901420,-73085.510509
28678.912570,12731.542202,8586.388927,-75383.797003
28678.915110,-13915.871710,6957.935855,-74617.701505
28678.917651,8882.471304,4441.235652,-72779.072310
28678.920191,-14656.077652,10066.800811,-75690.235202
28678.922732,-5329.482782,12287.418637,-75077.358804
28678.925273,7105.977043,11843.295072,-74311.263306
28678.927813,-2812.782580,11695.253884,-73238.729609
28678.930354,-1628.453072,10510.924376,-73545.167808
28678.932895,-10510.924376,13915.871710,-74158.044206
28678.935435,3552.988522,11547.212695,-75690.235202
28678.937976,-1628.453072,9474.636058,-74617.701505
28678.940517,3552.988522,2072.576638,-75843.454302
28678.943057,-3701.029710,10510.924376,-75690.235202
28678.945598,23982.672521,2664.741391,-75843.454302
28678.948139,-21169.889941,740.205942,-74004.825107
28678.950679,23686.590144,2960.823768,-76915.987999
28678.953220,7994.224174,3552.988522,-75383.797003
28678.955760,2960.823768,-592.164754,-74770.920605
28678.958301,10214.842000,1036.288319,-75537.016103
28678.960842,-3997.112087,1184.329507,-75996.673402
28678.963382,8882.471304,9326.594869,-74617.701505
28678.965923,-1332.370696,7550.100608,-75690.235202
28678.968477,9622.677246,5921.647536,-75383.797003
28678.971032,8734.430116,3701.029710,-75077.358804
28678.973586,10066.800811,0.000000,-75537.016103
28678.976140,-3552.988522,3849.070898,-76609.549800
28678.978694,9326.594869,8142.265362,-76303.111601
28678.981249,2516.700203,5477.523971,-76456.330700
28678.983803,5773.606348,2368.659014,-73545.167808
28678.986357,9030.512492,1184.329507,-74158.044206
28678.988912,740.205942,3849.070898,-76303.111601
28678.991466,10510.924376,5625.565159,-76609.549800
28678.994020,-4145.153275,9326.594869,-74158.044206
28678.996575,13915.871710,-3404.947333,-77222.426198
28678.999129,4145.153275,-7698.141797,-76303.111601
28679.001683,7254.018232,-7254.018232,-75383.797003
28679.004237,8142.265362,3997.112087,-75843.454302
28679.006792,4589.276840,3997.112087,-77528.864398
28679.009346,-30940.608376,21169.889941,-74464.482406
28679.011900,17024.736666,17468.860231,-74617.701505
28679.014455,-19837.519246,21317.931130,-71706.538613
28679.017009,10955.047942,11695.253884,-74311.263306
28679.019563,6957.935855,7698.141797,-74464.482406
28679.022117,-1628.453072,5033.400406,-74924.139704
28679.024672,-7698.141797,2368.659014,-76915.987999
28679.027226,-1036.288319,3701.029710,-78601.398095
28679.029780,-9474.636058,10658.965565,-74158.044206
28679.032335,6957.935855,14656.077652,-73391.948708
28679.034889,6069.688724,14804.118840,-74770.920605
28679.037443,-3256.906145,5921.647536,-76915.987999
28679.039998,1480.411884,5181.441594,-74464.482406
28679.042552,-7402.059420,7402.059420,-75230.577904
28679.045106,-1924.535449,9178.553681,-77222.426198
28679.047660,3997.112087,11843.295072,-74770.920605
28679.050225,-1776.494261,13471.748144,-72932.291410
28679.052790,-3256.906145,10955.047942,-74311.263306
28679.055354,-6365.771101,13915.871710,-74924.139704
28679.057919,888.247130,10510.924376,-75996.673402
28679.060483,-444.123565,7402.059420,-74617.701505
28679.063048,444.123565,3256.906145,-75383.797003
28679.065612,-7846.182985,9622.677246,-75843.454302
28679.068177,21169.889941,1776.494261,-76149.892501
28679.070741,-17172.777854,888.247130,-72166.195912
28679.073306,23982.672521,1628.453072,-76149.892501
28679.075871,4441.235652,2220.617826,-75537.016103
28679.078435,740.205942,148.041188,-74004.825107
28679.081000,11399.171507,2220.617826,-75383.797003
28679.083564,-6513.812290,3701.029710,-75996.673402
28679.086129,4885.359217,8290.306550,-73851.606007
28679.088693,-444.123565,6661.853478,-75383.797003
28679.091258,9326.594869,5181.441594,-75383.797003
28679.093822,7105.977043,3256.906145,-74617.701505
28679.096387,5921.647536,0.000000,-75690.235202
28679.098952,6069.688724,6957.935855,-75230.577904
28679.101516,-296.082377,7550.100608,-76456.330700
28679.104081,5181.441594,4293.194464,-75690.235202
28679.106645,7698.141797,3404.947333,-73391.948708
28679.109210,11991.336260,2368.659014,-74924.139704
28679.111774,-1628.453072,5329.482782,-76456.330700
28679.114339,9030.512492,4885.359217,-76915.987999
28679.116903,-1036.288319,3552.988522,-74770.920605
28679.119468,17616.901420,-4293.194464,-75690.235202
28679.122033,-148.041188,-6957.935855,-75077.358804
28679.124597,3256.906145,-2664.741391,-74464.482406
28679.127162,15988.448347,3108.864956,-76915.987999
28679.129726,-24574.837274,10066.800811,-75690.235202
28679.132291,-5625.565159,21317.931130,-75690.235202
28679.134855,4145.153275,20873.807564,-72012.976812
28679.137420,-12287.418637,15840.407159,-72472.634111
28679.139985,17320.819043,8290.306550,-75843.454302
28679.142549,-740.205942,5477.523971,-75996.673402
28679.145114,-1480.411884,5033.400406,-75230.577904
28679.147678,-11843.295072,4589.276840,-75690.235202
28679.150243,-6957.935855,6365.771101,-76149.892501
28679.152815,2220.617826,12879.583391,-73085.510509
28679.155388,7550.100608,13619.789333,-74311.263306
28679.157960,-7550.100608,12139.377449,-75077.358804
28679.160532,7994.224174,4737.318029,-75537.016103
28679.163105,-10658.965565,7846.182985,-74770.920605
28679.165677,-296.082377,7698.141797,-76303.111601
28679.168250,-3701.029710,11251.130318,-75996.673402
28679.170822,4293.194464,13175.665768,-73851.606007
28679.173394,-296.082377,13915.871710,-73085.510509
28679.175967,-5773.606348,13915.871710,-75383.797003
28679.178539,-1480.411884,12583.501014,-75230.577904
28679.181112,888.247130,7846.182985,-75383.797003
28679.183684,-3849.070898,3997.112087,-75077.358804
28679.186256,-6809.894666,11695.253884,-75690.235202
28679.188829,27831.743419,1184.329507,-77835.302597
28679.191401,-17024.736666,-1036.288319,-74464.482406
28679.193974,17764.942608,2812.782580,-75537.016103
28679.196546,16136.489536,3108.864956,-76303.111601
28679.199118,3849.070898,-444.123565,-75996.673402
28679.201691,4885.359217,3552.988522,-75230.577904
28679.204263,-5033.400406,3256.906145,-75383.797003
28679.206836,6217.729913,7402.059420,-74464.482406
28679.209408,3256.906145,6809.894666,-74770.920605
28679.211981,9326.594869,6069.688724,-75230.577904
28679.214553,6365.771101,3997.112087,-75843.454302
28679.217125,6809.894666,296.082377,-75230.577904
28679.219698,4145.153275,5477.523971,-76303.111601
28679.222270,296.082377,6365.771101,-76149.892501
28679.224843,11547.212695,3552.988522,-76303.111601
28679.227415,592.164754,2516.700203,-74464.482406
28679.229987,10362.883188,2516.700203,-75230.577904
28679.232560,1036.288319,6809.894666,-76609.549800
28679.235132,7846.182985,3997.112087,-76915.987999
28679.237705,1036.288319,3108.864956,-75383.797003
28679.240277,20133.601622,-6957.935855,-76149.892501
28679.242849,-5477.523971,-5773.606348,-75230.577904
28679.245422,9474.636058,3404.947333,-74311.263306
28679.247994,5625.565159,6365.771101,-75537.016103
28679.250567,-26055.249158,13027.624579,-75383.797003
28679.253139,2960.823768,19985.560434,-75383.797003
28679.255718,-6513.812290,21614.013506,-72012.976812
28679.258296,888.247130,14063.912898,-72779.072310
28679.260875,8734.430116,8142.265362,-75996.673402
28679.263454,-296.082377,5625.565159,-75843.454302
28679.266033,-9030.512492,5477.523971,-75690.235202
28679.268611,-5329.482782,3997.112087,-76609.549800
28679.271190,-8586.388927,5625.565159,-74770.920605
28679.273769,4293.194464,12731.542202,-73391.948708
28679.276347,3552.988522,15840.407159,-73085.510509
28679.278926,592.164754,9030.512492,-76456.330700
28679.281505,740.205942,7698.141797,-74770.920605
28679.284083,-7254.018232,8290.306550,-74158.044206
28679.286662,-4293.194464,10066.800811,-75996.673402
28679.289241,592.164754,10658.965565,-75077.358804
28679.291820,-1036.288319,13471.748144,-72932.291410
28679.294398,-3552.988522,12731.542202,-74158.044206
28679.296977,-4441.235652,14359.995275,-74617.701505
28679.299556,3404.947333,10362.883188,-75383.797003
28679.302134,-3404.947333,6365.771101,-76149.892501
28679.304713,-2812.782580,6513.812290,-74924.139704
28679.307292,9770.718434,9474.636058,-76303.111601
28679.309870,9622.677246,-296.082377,-75537.016103
28679.312449,-13619.789333,1480.411884,-71859.757712
28679.315028,32272.979071,-740.205942,-75843.454302
28679.317607,-3256.906145,1924.535449,-75996.673402
28679.320185,1480.411884,2812.782580,-75690.235202
28679.322764,9030.512492,1480.411884,-76456.330700
28679.325343,-6513.812290,5921.647536,-75230.577904
28679.327921,12435.459826,4885.359217,-75383.797003
28679.330500,-5329.482782,6217.729913,-74464.482406
28679.333079,19541.436869,4441.235652,-75843.454302
28679.335657,2516.700203,2220.617826,-75230.577904
28679.338236,2516.700203,2812.782580,-75690.235202
28679.340815,7254.018232,8882.471304,-75537.016103
28679.343394,296.082377,4885.359217,-75996.673402
28679.345972,10214.842000,2220.617826,-75690.235202
28679.348551,5329.482782,1184.329507,-74311.263306
28679.351130,5329.482782,5033.400406,-75230.577904
28679.353708,3849.070898,4293.194464,-76762.768900
28679.356287,5329.482782,3849.070898,-75230.577904
28679.358869,12139.377449,-6069.688724,-75537.016103
28679.361452,2960.823768,-7550.100608,-75690.235202
28679.364034,-740.205942,-2812.782580,-74924.139704
28679.366617,18653.189738,4145.153275,-75383.797003
28679.369199,-12583.501014,8142.265362,-75843.454302
28679.371781,-2664.741391,22354.219448,-75383.797003
28679.374364,444.123565,22058.137072,-73085.510509
28679.376946,-9326.594869,15396.283594,-71706.538613
28679.379529,15396.283594,7550.100608,-75537.016103
28679.382111,-444.123565,4737.318029,-75690.235202
28679.384694,-592.164754,3552.988522,-77069.207099
28679.387276,-10807.006753,5921.647536,-75690.235202
28679.389858,-3256.906145,6809.894666,-75996.673402
28679.392441,4885.359217,13471.748144,-72012.976812
28679.395023,2072.576638,15988.448347,-72166.195912
28679.397606,444.123565,8882.471304,-75537.016103
28679.400188,-592.164754,7698.141797,-74924.139704
28679.402770,-4145.153275,9178.553681,-74004.825107
28679.405353,-7698.141797,8586.388927,-76915.987999
28679.407935,-592.164754,11399.171507,-76762.768900
28679.410518,-1184.329507,11547.212695,-74311.263306
28679.413100,592.164754,14211.954086,-73085.510509
28679.415683,-4589.276840,13915.871710,-73851.606007
28679.418265,4737.318029,9770.718434,-75230.577904
28679.420847,-3108.864956,7402.059420,-75690.235202
28679.423430,-10066.800811,7105.977043,-75537.016103
28679.426012,5773.606348,11991.336260,-75996.673402
28679.428595,15692.365970,-740.205942,-76762.768900
28679.431177,-14508.036463,2368.659014,-71400.100414
28679.433759,30792.567187,-2368.659014,-76609.549800
28679.436342,-8586.388927,888.247130,-76762.768900
28679.438924,6809.894666,2960.823768,-75537.016103
28679.441507,5181.441594,3404.947333,-76762.768900
28679.444089,-4737.318029,7105.977043,-75690.235202
28679.446672,15100.201217,5033.400406,-74004.825107
28679.449254,-4441.235652,5181.441594,-74924.139704
28679.451836,19689.478057,3256.906145,-75537.016103
28679.454419,-3701.029710,4885.359217,-75077.358804
28679.457001,3256.906145,4441.235652,-75690.235202
28679.459584,3849.070898,4589.276840,-77528.864398
28679.462169,3701.029710,5329.482782,-76609.549800
28679.464754,11103.089130,2812.782580,-74158.044206
28679.467340,1332.370696,2664.741391,-74004.825107
28679.469925,11843.295072,4589.276840,-76303.111601
28679.472511,-3108.864956,3404.947333,-76609.549800
28679.475096,14952.160028,-1184.329507,-76303.111601
28679.477682,2368.659014,-8586.388927,-75383.797003
28679.480267,4737.318029,-7994.224174,-75690.235202
28679.482852,2368.659014,1036.288319,-75383.797003
28679.485438,16876.695478,3256.906145,-76149.892501
28679.488023,-34049.473332,16876.695478,-75843.454302
28679.490609,13027.624579,16876.695478,-77222.426198
28679.493194,-16284.530724,23686.590144,-71859.757712
28679.495779,6365.771101,11399.171507,-72932.291410
28679.498365,7846.182985,6809.894666,-75537.016103
28679.500950,-4145.153275,5773.606348,-74617.701505
28679.503536,-6069.688724,4441.235652,-75077.358804
28679.506121,-8290.306550,6069.688724,-77222.426198
28679.508707,-5625.565159,7254.018232,-75383.797003
28679.511292,740.205942,11251.130318,-72779.072310
28679.513877,9326.594869,15544.324782,-73698.386908
28679.516463,-3404.947333,7254.018232,-75383.797003
28679.519048,2960.823768,7550.100608,-74464.482406
28679.521634,-9030.512492,10214.842000,-75537.016103
28679.524219,-3404.947333,10066.800811,-76762.768900
28679.526805,-1184.329507,11251.130318,-74770.920605
28679.529390,-4589.276840,14063.912898,-73545.167808
28679.531975,4737.318029,13027.624579,-74004.825107
28679.534561,-4737.318029,13175.665768,-73698.386908
28679.537146,7402.059420,6661.853478,-75843.454302
28679.539732,-15988.448347,9918.759623,-75077.358804
28679.542317,6957.935855,10362.883188,-75843.454302
28679.544902,11695.253884,1332.370696,-76609.549800
28679.547488,-7402.059420,-2072.576638,-74158.044206
28679.550073,22502.260637,-444.123565,-75537.016103
28679.552659,12287.418637,-148.041188,-75996.673402
28679.555244,1036.288319,444.123565,-76609.549800
28679.557830,7994.224174,5477.523971,-76762.768900
28679.560415,-7402.059420,7254.018232,-75077.358804
28679.563000,11695.253884,6069.688724,-73851.606007
28679.565588,3552.988522,4737.318029,-75077.358804
28679.568175,11991.336260,3108.864956,-75996.673402
28679.570763,1924.535449,4293.194464,-74924.139704
28679.573351,7105.977043,444.123565,-77069.207099
28679.575939,6217.729913,8734.430116,-75383.797003
28679.578527,6365.771101,3404.947333,-75690.235202
28679.581115,4589.276840,1776.494261,-74924.139704
28679.583703,6365.771101,4293.194464,-73545.167808
28679.586291,8586.388927,4737.318029,-76456.330700
28679.588879,2664.741391,4589.276840,-76303.111601
28679.591467,10658.965565,-1776.494261,-75230.577904
28679.594054,5033.400406,-8142.265362,-75690.235202
28679.596642,-1628.453072,-6809.894666,-74924.139704
28679.599230,13175.665768,2664.741391,-75690.235202
28679.601818,2664.741391,4441.235652,-74924.139704
28679.604406,-28127.825796,19689.478057,-75843.454302
28679.606994,17172.777854,17024.736666,-76762.768900
28679.609582,-18949.272115,19393.395680,-72012.976812
28679.612170,14211.954086,7994.224174,-74924.139704
28679.614758,3404.947333,5477.523971,-75383.797003
28679.617346,-3849.070898,7698.141797,-75383.797003
28679.619933,-4589.276840,5181.441594,-75077.358804
28679.622521,-10658.965565,5181.441594,-76609.549800
28679.625109,-296.082377,9030.512492,-74617.701505
28679.627697,-888.247130,14508.036463,-71859.757712
28679.630285,10510.924376,13027.624579,-74617.701505
28679.632873,-5625.565159,7254.018232,-75690.235202
28679.635461,-3552.988522,9622.677246,-73391.948708
28679.638049,-5625.565159,10362.883188,-75537.016103
28679.640637,-2368.659014,9918.759623,-77222.426198
28679.643225,-4145.153275,12731.542202,-74464.482406
28679.645812,1332.370696,14656.077652,-72472.634111
28679.648400,-1184.329507,12731.542202,-74004.825107
28679.650988,3701.029710,9918.759623,-74004.825107
28679.653576,-4885.359217,6365.771101,-75537.016103
28679.656164,-15248.242405,13175.665768,-74924.139704
28679.658752,19689.478057,7254.018232,-76149.892501
28679.661340,-1776.494261,-444.123565,-74464.482406
28679.663928,-888.247130,-1776.494261,-73391.948708
28679.666516,27239.578666,-3108.864956,-75537.016103
28679.669105,-6513.812290,-1480.411884,-76609.549800
28679.671693,4737.318029,3108.864956,-75843.454302
28679.674282,2220.617826,5477.523971,-76149.892501
28679.676871,-1036.288319,8438.347739,-75077.358804
28679.679460,14804.118840,4145.153275,-75230.577904
28679.682049,3256.906145,3997.112087,-74311.263306
28679.684638,8882.471304,3997.112087,-75383.797003
28679.687227,5477.523971,2664.741391,-75537.016103
28679.689816,-2072.576638,6069.688724,-75690.235202
28679.692404,7402.059420,6217.729913,-76456.330700
28679.694993,2072.576638,2664.741391,-75230.577904
28679.697582,7846.182985,3552.988522,-73238.729609
28679.700171,7402.059420,3256.906145,-75843.454302
28679.702760,3701.029710,5181.441594,-76915.987999
28679.705349,11547.212695,2368.659014,-75537.016103
28679.707938,6513.812290,-3404.947333,-75996.673402
28679.710527,4589.276840,-7846.182985,-75537.016103
28679.713115,-8142.265362,-3552.988522,-75230.577904
28679.715704,21614.013506,592.164754,-76609.549800
28679.718293,-36566.173535,14063.912898,-73851.606007
28679.720882,14359.995275,17172.777854,-77375.645298
28679.723471,-15988.448347,24278.754898,-73391.948708
28679.726060,2960.823768,15840.407159,-71859.757712
28679.728649,3552.988522,9770.718434,-73698.386908
28679.731238,5921.647536,3552.988522,-76762.768900
28679.733826,-8290.306550,5329.482782,-75690.235202
28679.736415,-4589.276840,4737.318029,-77375.645298
28679.739004,-8142.265362,7698.141797,-75383.797003
28679.741593,9770.718434,14211.954086,-72472.634111
28679.744182,-7994.224174,17764.942608,-71553.319513
28679.746771,13915.871710,1776.494261,-78448.178995
28679.749360,-11547.212695,8586.388927,-74464.482406
28679.751948,592.164754,8586.388927,-74770.920605
28679.754537,-8438.347739,11991.336260,-75843.454302
28679.757126,-6365.771101,11547.212695,-75843.454302
28679.759715,1628.453072,15692.365970,-73238.729609
28679.762304,148.041188,13471.748144,-73698.386908
28679.764893,3849.070898,8438.347739,-73698.386908
28679.767482,-2960.823768,6365.771101,-75383.797003
28679.770071,-12731.542202,11399.171507,-75690.235202
28679.772660,444.123565,12879.583391,-75996.673402
28679.775250,17764.942608,1924.535449,-76456.330700
28679.777840,-10362.883188,148.041188,-72779.072310
28679.780430,31680.814318,-3256.906145,-74464.482406
28679.783020,-10066.800811,-1332.370696,-74617.701505
28679.785610,2368.659014,2516.700203,-75690.235202
28679.788200,5033.400406,5477.523971,-77069.207099
28679.790790,-7402.059420,8734.430116,-74617.701505
28679.793379,15988.448347,5773.606348,-75077.358804
28679.795969,4885.359217,3701.029710,-74464.482406
28679.798559,14359.995275,2368.659014,-75537.016103
28679.801149,-6069.688724,4885.359217,-74311.263306
28679.803739,10362.883188,6069.688724,-75996.673402
28679.806329,-2516.700203,7254.018232,-77528.864398
28679.808919,11103.089130,2664.741391,-75996.673402
28679.811509,888.247130,1776.494261,-74770.920605
28679.814098,12583.501014,2220.617826,-74770.920605
28679.816688,1776.494261,4737.318029,-75843.454302
28679.819278,9326.594869,2812.782580,-76303.111601
28679.821868,8290.306550,-5477.523971,-75843.454302
28679.824458,-3997.112087,-6217.729913,-74004.825107
28679.827048,8734.430116,592.164754,-75843.454302
28679.829638,15396.283594,888.247130,-75996.673402
28679.832228,-33013.185013,14804.118840,-74158.044206
28679.834817,13323.706956,17764.942608,-77222.426198
28679.837407,-15840.407159,23982.672521,-72932.291410
28679.839997,2072.576638,15840.407159,-72472.634111
28679.842587,3997.112087,7698.141797,-74924.139704
28679.845177,-3256.906145,5477.523971,-75077.358804
28679.847767,-3849.070898,7550.100608,-74924.139704
28679.850357,-6365.771101,5773.606348,-77069.207099
28679.852947,-9326.594869,7698.141797,-75996.673402
28679.855536,4589.276840,10658.965565,-74464.482406
28679.858126,-740.205942,15396.283594,-74004.825107
28679.860716,7698.141797,5329.482782,-77069.207099
28679.863306,-1332.370696,8142.265362,-73238.729609
28679.865896,-6513.812290,11399.171507,-75690.235202
28679.868486,-3256.906145,10362.883188,-76609.549800
28679.871076,-8290.306550,14211.954086,-75383.797003
28679.873666,3552.988522,14952.160028,-74158.044206
28679.876255,-296.082377,13323.706956,-72779.072310
28679.878845,5181.441594,7846.182985,-73698.386908
28679.881434,-5033.400406,6661.853478,-76303.111601
28679.884024,-16580.613101,12435.459826,-75690.235202
28679.886613,33605.349767,2072.576638,-77682.083497
28679.889202,-21614.013506,-4737.318029,-74770.920605
28679.891792,22206.178260,-4441.235652,-77682.083497
28679.894381,19393.395680,-2220.617826,-76149.892501
28679.896971,-1924.535449,-2664.741391,-74924.139704
28679.899560,7105.977043,4441.235652,-76149.892501
28679.902150,-1036.288319,6365.771101,-76303.111601
28679.904739,3552.988522,10214.842000,-74004.825107
28679.907329,13767.830521,5477.523971,-74617.701505
28679.909918,4441.235652,1924.535449,-75537.016103
28679.912508,6661.853478,0.000000,-75690.235202
28679.915097,6069.688724,5181.441594,-75383.797003
28679.917687,-2812.782580,8734.430116,-76303.111601
28679.920276,7254.018232,3701.029710,-76915.987999
28679.922866,2516.700203,4293.194464,-74464.482406
28679.925455,16136.489536,1036.288319,-75383.797003
28679.928045,-592.164754,4885.359217,-75690.235202
28679.930634,13175.665768,1480.411884,-78141.740796
28679.933224,6069.688724,-1776.494261,-76149.892501
28679.935813,6365.771101,-8586.388927,-76456.330700
28679.938403,-10510.924376,-3404.947333,-76149.892501
28679.940992,28127.825796,-2516.700203,-78754.617194
28679.943581,-22058.137072,8882.471304,-73085.510509
28679.946171,-1332.370696,20577.725188,-75996.673402
28679.948760,-8142.265362,24278.754898,-72932.291410
28679.951350,-9622.677246,17468.860231,-71246.881314
28679.953939,14508.036463,8438.347739,-74770.920605
28679.956529,-1776.494261,4145.153275,-75690.235202
28679.959118,-4589.276840,6217.729913,-75077.358804
28679.961708,-2664.741391,5033.400406,-77375.645298
28679.964297,-11695.253884,6069.688724,-76762.768900
28679.966887,0.000000,10362.883188,-72625.853210
28679.969476,6069.688724,11843.295072,-74311.263306
28679.972066,-1480.411884,7254.018232,-76456.330700
28679.974655,-740.205942,6809.894666,-74311.263306
28679.977245,-5329.482782,11695.253884,-74464.482406
28679.979834,-3849.070898,10658.965565,-75383.797003
28679.982423,-5477.523971,14063.912898,-74464.482406
28679.985012,-3256.906145,16284.530724,-73391.948708
28679.987601,5625.565159,13915.871710,-74158.044206
28679.990191,296.082377,8290.306550,-74004.825107
28679.992780,-3404.947333,6513.812290,-75383.797003
28679.995369,-15248.242405,15100.201217,-75996.673402
28679.997958,26943.496289,1184.329507,-77988.521696
28680.000547,-19245.354492,-1628.453072,-74311.263306
28680.003137,31976.896694,-5329.482782,-76762.768900
28680.005726,7254.018232,-1184.329507,-75230.577904
28680.008315,9030.512492,-3256.906145,-75537.016103
28680.010904,-3404.947333,7698.141797,-75383.797003
28680.013493,1776.494261,5921.647536,-77222.426198
28680.016082,-3849.070898,10658.965565,-73391.948708
28680.018672,15692.365970,4293.194464,-75230.577904
28680.021261,6069.688724,2220.617826,-75537.016103
28680.023850,15100.201217,888.247130,-76456.330700
28680.026439,-5181.441594,4441.235652,-75077.358804
28680.029028,11103.089130,6365.771101,-77835.302597
28680.031618,-2812.782580,4441.235652,-76149.892501
28680.034207,6809.894666,3108.864956,-74770.920605
28680.036796,10362.883188,2960.823768,-73698.386908
28680.039385,2960.823768,1924.535449,-75383.797003
28680.041974,14063.912898,2960.823768,-75690.235202
28680.044564,3849.070898,-4885.359217,-77069.207099
28680.047153,-740.205942,-4885.359217,-74617.701505
28680.049742,3108.864956,-296.082377,-75843.454302
28680.052331,13027.624579,-444.123565,-77528.864398
28680.054920,-34049.473332,15248.242405,-74004.825107
28680.057509,20281.642811,17764.942608,-76303.111601
28680.060099,-22354.219448,25463.084405,-72625.853210
28680.062688,13619.789333,11251.130318,-74311.263306
28680.065277,-1332.370696,8142.265362,-74617.701505
28680.067866,-1036.288319,6957.935855,-75077.358804
28680.070455,-1924.535449,7402.059420,-74770.920605
28680.073045,-9178.553681,5033.400406,-76456.330700
28680.075634,-1924.535449,7698.141797,-75230.577904
28680.078223,-1332.370696,11991.336260,-73851.606007
28680.080812,5921.647536,10658.965565,-74770.920605
28680.083365,2664.741391,7254.018232,-75077.358804
28680.085917,-5773.606348,10807.006753,-72932.291410
28680.088470,740.205942,9474.636058,-75690.235202
28680.091023,-12731.542202,14063.912898,-74464.482406
28680.093575,1776.494261,13175.665768,-74311.263306
28680.096128,-6217.729913,16580.613101,-72779.072310
28680.098680,11695.253884,9474.636058,-74311.263306
28680.101233,-3701.029710,9326.594869,-73238.729609
28680.103785,-14508.036463,10362.883188,-76456.330700
28680.106338,9474.636058,11251.130318,-75537.016103
28680.108891,4441.235652,1924.535449,-75077.358804
28680.111443,-6957.935855,1036.288319,-73391.948708
28680.113996,35529.885216,-3701.029710,-76149.892501
28680.116548,-1332.370696,-3108.864956,-75077.358804
28680.119101,-1480.411884,444.123565,-75843.454302
28680.121654,7846.182985,4737.318029,-76149.892501
28680.124206,-7402.059420,9030.512492,-75077.358804
28680.126759,16728.654289,6217.729913,-74617.701505
28680.129311,-148.041188,5773.606348,-74770.920605
28680.131864,17172.777854,296.082377,-76609.549800
28680.134417,3997.112087,2368.659014,-75383.797003
28680.136969,444.123565,6217.729913,-75230.577904
28680.139522,2220.617826,4589.276840,-76609.549800
28680.142074,3552.988522,3997.112087,-75537.016103
28680.144627,12139.377449,2220.617826,-74311.263306
28680.147179,3256.906145,3108.864956,-74617.701505
28680.149732,14063.912898,592.164754,-77222.426198
28680.152285,10807.006753,-2368.659014,-76149.892501
28680.154837,-3404.947333,-8882.471304,-75843.454302
28680.157390,3997.112087,-1628.453072,-75077.358804
28680.159942,14359.995275,-888.247130,-77375.645298
28680.162495,-23094.425390,7994.224174,-74617.701505
28680.165048,13619.789333,18653.189738,-75843.454302
28680.167600,-15988.448347,24574.837274,-72932.291410
28680.170153,1776.494261,16136.489536,-73238.729609
28680.172705,5181.441594,9326.594869,-74311.263306
28680.175258,888.247130,4293.194464,-74924.139704
28680.177811,-3849.070898,7402.059420,-75230.577904
28680.180363,-4293.194464,4145.153275,-77528.864398
28680.182916,-6809.894666,7846.182985,-75996.673402
28680.185475,-5329.482782,12139.377449,-72779.072310
28680.188034,7846.182985,14656.077652,-73851.606007
28680.190593,-5329.482782,7105.977043,-75690.235202
28680.193153,-148.041188,7994.224174,-74924.139704
28680.195712,-6365.771101,12731.542202,-74617.701505
28680.198271,-3701.029710,11991.336260,-76303.111601
28680.200830,-5625.565159,14211.954086,-75537.016103
28680.203389,296.082377,14508.036463,-73851.606007
28680.205949,3404.947333,9770.718434,-74004.825107
28680.208508,-1332.370696,7550.100608,-74770.920605
28680.211067,-9918.759623,13175.665768,-75230.577904
28680.213626,444.123565,11399.171507,-76456.330700
28680.216185,10955.047942,1036.288319,-75843.454302
28680.218745,-7105.977043,888.247130,-72166.195912
28680.221304,34345.555709,-3997.112087,-77069.207099
28680.223863,2960.823768,-1628.453072,-75383.797003
28680.226422,592.164754,2368.659014,-75383.797003
28680.228981,4885.359217,4589.276840,-76762.768900
28680.231541,-6661.853478,8586.388927,-74464.482406
28680.234100,12139.377449,7698.141797,-74158.044206
28680.236659,5477.523971,4737.318029,-75077.358804
28680.239218,9918.759623,1184.329507,-75230.577904
28680.241777,6513.812290,4145.153275,-74464.482406
28680.244337,-1184.329507,5033.400406,-75537.016103
28680.246896,7550.100608,3404.947333,-77069.207099
28680.249455,296.082377,4441.235652,-74770.920605
28680.252014,12731.542202,740.205942,-75230.577904
28680.254573,4589.276840,3849.070898,-75230.577904
28680.257133,16136.489536,-740.205942,-77682.083497
28680.259692,4441.235652,-2960.823768,-76303.111601
28680.262251,-592.164754,-9326.594869,-76303.111601
28680.264810,888.247130,-1628.453072,-74770.920605
28680.267370,14063.912898,1184.329507,-76762.768900
28680.269929,-21169.889941,17764.942608,-75690.235202
28680.272488,17468.860231,17912.983796,-75843.454302
28680.275047,-19837.519246,23242.466579,-73085.510509
28680.277606,12583.501014,12287.418637,-74617.701505
28680.280166,-3108.864956,8882.471304,-73851.606007
28680.282725,5477.523971,6957.935855,-74311.263306
28680.285284,-5773.606348,6661.853478,-75843.454302
28680.287849,-3701.029710,3997.112087,-77528.864398
28680.290414,-1036.288319,8290.306550,-74311.263306
28680.292979,3849.070898,12583.501014,-73085.510509
28680.295543,444.123565,12879.583391,-72932.291410
28680.298108,2072.576638,8142.265362,-75996.673402
28680.300673,-2960.823768,10955.047942,-74158.044206
28680.303238,-4885.359217,12731.542202,-75996.673402
28680.305803,-6217.729913,12731.542202,-75537.016103
28680.308368,-6661.853478,14063.912898,-74924.139704
28680.310932,10362.883188,11695.253884,-74158.044206
28680.313497,-3997.112087,9918.759623,-73698.386908
28680.316062,2960.823768,7550.100608,-75230.577904
28680.318627,-17912.983796,17320.819043,-74770.920605
28680.321192,28868.031738,888.247130,-77682.083497
28680.323757,-19245.354492,-2664.741391,-74158.044206
28680.326322,21317.931130,-4737.318029,-76915.987999
28680.328886,19393.395680,-2516.700203,-76149.892501
28680.331451,6217.729913,-1776.494261,-75537.016103
28680.334016,444.123565,5625.565159,-74924.139704
28680.336581,-1332.370696,5773.606348,-77222.426198
28680.339146,-2220.617826,8586.388927,-73085.510509
28680.341711,17764.942608,6957.935855,-74464.482406
28680.344276,-740.205942,6069.688724,-75230.577904
28680.346840,21169.889941,1036.288319,-76456.330700
28680.349405,-5181.441594,3849.070898,-74004.825107
28680.351970,3552.988522,5033.400406,-77069.207099
28680.354535,2072.576638,2664.741391,-76609.549800
28680.357100,6661.853478,5181.441594,-74770.920605
28680.359665,8290.306550,3701.029710,-74770.920605
28680.362230,11695.253884,592.164754,-76609.549800
28680.364794,10214.842000,-2220.617826,-76609.549800
28680.367359,2220.617826,-8290.306550,-77222.426198
28680.369929,-4293.194464,-2220.617826,-74770.920605
28680.372499,10955.047942,-3552.988522,-77835.302597
28680.375068,-28127.825796,11103.089130,-73698.386908
28680.377638,12435.459826,21465.972318,-75383.797003
28680.380208,-15396.283594,27535.661042,-70634.004916
28680.382777,-740.205942,18505.148550,-72779.072310
28680.385347,3552.988522,9326.594869,-74158.044206
28680.387917,2960.823768,1480.411884,-76149.892501
28680.390486,-7402.059420,6365.771101,-74311.263306
28680.393056,-5625.565159,1480.411884,-79367.493593
28680.395626,-11695.253884,8586.388927,-75230.577904
28680.398195,11251.130318,9770.718434,-74311.263306
28680.400765,-5033.400406,11991.336260,-72472.634111
28680.403335,2960.823768,7105.977043,-75690.235202
28680.405904,-2516.700203,10807.006753,-74004.825107
28680.408474,-6513.812290,13323.706956,-74924.139704
28680.411044,-6957.935855,14656.077652,-75996.673402
28680.413613,-1628.453072,12879.583391,-75077.358804
28680.416183,2812.782580,13175.665768,-73238.729609
28680.418753,2664.741391,8142.265362,-73698.386908
28680.421322,-5181.441594,9770.718434,-75383.797003
28680.423892,-9326.594869,13619.789333,-75843.454302
28680.426462,23538.548956,1036.288319,-78294.959896
28680.429031,-17320.819043,-4441.235652,-74311.263306
28680.431601,27387.619854,-4885.359217,-76762.768900
28680.434171,15100.201217,-3256.906145,-75843.454302
28680.436740,7994.224174,-2368.659014,-76303.111601
28680.439310,-148.041188,5773.606348,-75230.577904
28680.441880,1480.411884,4441.235652,-76303.111601
28680.444449,-3404.947333,7698.141797,-74617.701505
28680.447019,13027.624579,5329.482782,-74924.139704
28680.449589,7698.141797,2960.823768,-75996.673402
28680.452158,6365.771101,3849.070898,-76456.330700
28680.454728,3849.070898,3997.112087,-75690.235202
28680.457298,592.164754,5329.482782,-75690.235202
28680.459867,7254.018232,3552.988522,-75843.454302
28680.462437,6069.688724,1036.288319,-74464.482406
28680.465007,9326.594869,4441.235652,-74158.044206
28680.467576,15988.448347,-1332.370696,-77835.302597
28680.470146,3552.988522,-2368.659014,-76609.549800
28680.472718,148.041188,-8882.471304,-76915.987999
28680.475291,1332.370696,-1776.494261,-74617.701505
28680.477863,11547.212695,-2220.617826,-77528.864398
28680.480435,-33457.308578,12435.459826,-74158.044206
28680.483008,17912.983796,19689.478057,-75537.016103
28680.485580,-22798.343014,29016.072926,-70940.443115
28680.488152,12287.418637,12731.542202,-74770.920605
28680.490725,-1332.370696,8142.265362,-73698.386908
28680.493297,-1924.535449,5921.647536,-73851.606007
28680.495869,-1036.288319,9326.594869,-75077.358804
28680.498442,-7994.224174,2812.782580,-78754.617194
28680.501014,-3108.864956,6809.894666,-74617.701505
28680.503587,296.082377,11103.089130,-73851.606007
28680.506159,1776.494261,11695.253884,-73851.606007
28680.508731,-6513.812290,9474.636058,-75690.235202
28680.511304,592.164754,10658.965565,-74311.263306
28680.513876,-9770.718434,14211.954086,-74924.139704
28680.516448,296.082377,13471.748144,-76149.892501
28680.519021,-10066.800811,13915.871710,-73698.386908
28680.521593,13323.706956,10658.965565,-73698.386908
28680.524165,-5477.523971,9622.677246,-74158.044206
28680.526738,-3404.947333,12139.377449,-75383.797003
28680.529310,-6217.729913,14211.954086,-76609.549800
28680.531882,8734.430116,148.041188,-75690.235202
28680.534455,-4441.235652,-2072.576638,-73085.510509
28680.537027,31384.731941,-5181.441594,-76303.111601
28680.539599,1628.453072,-2220.617826,-75077.358804
28680.542172,6513.812290,1036.288319,-75843.454302
28680.544744,-296.082377,7402.059420,-75996.673402
28680.547317,-2220.617826,5921.647536,-75537.016103
28680.549889,8438.347739,6809.894666,-73391.948708
28680.552461,5773.606348,3849.070898,-74770.920605
28680.555034,16580.613101,4885.359217,-75537.016103
28680.557606,-1184.329507,5773.606348,-74770.920605
28680.560178,10214.842000,4589.276840,-75996.673402
28680.562751,-2664.741391,3404.947333,-77682.083497
28680.565323,11399.171507,1480.411884,-75690.235202
28680.567895,-1036.288319,2812.782580,-73698.386908
28680.570468,19245.354492,2220.617826,-75230.577904
28680.573040,9918.759623,-1332.370696,-76915.987999
28680.575614,3404.947333,-5625.565159,-76609.549800
28680.578189,-2664.741391,-4885.359217,-76303.111601
28680.580764,13915.871710,-1924.535449,-76609.549800
28680.583338,-14211.954086,3256.906145,-74311.263306
28680.585913,-3849.070898,22502.260637,-75383.797003
28680.588487,2664.741391,24574.837274,-73851.606007
28680.591062,-11399.171507,21614.013506,-72472.634111
28680.593637,3404.947333,9918.759623,-75230.577904
28680.596211,1036.288319,-592.164754,-76303.111601
28680.598786,-7402.059420,10066.800811,-73238.729609
28680.601360,4293.194464,3256.906145,-78754.617194
28680.603935,-11843.295072,6809.894666,-76915.987999
28680.606510,4737.318029,9030.512492,-73545.167808
28680.609084,-6217.729913,11695.253884,-73238.729609
28680.611659,4145.153275,6217.729913,-76762.768900
28680.614234,-5477.523971,11695.253884,-74004.825107
28680.616808,-5181.441594,13619.789333,-75843.454302
28680.619383,-6217.729913,14804.118840,-75690.235202
28680.621957,-5625.565159,13471.748144,-75383.797003
28680.624532,8734.430116,11251.130318,-74004.825107
28680.627107,-2220.617826,9918.759623,-73238.729609
28680.629681,-740.205942,10807.006753,-74924.139704
28680.632256,-13619.789333,16728.654289,-75230.577904
28680.634830,22206.178260,444.123565,-77988.521696
28680.637405,-17616.901420,-2220.617826,-73085.510509
28680.639980,39082.873738,-7105.977043,-77069.207099
28680.642554,3404.947333,-3256.906145,-75690.235202
28680.645129,9178.553681,-592.164754,-76456.330700
28680.647703,-888.247130,7550.100608,-75383.797003
28680.650278,-740.205942,5329.482782,-76609.549800
28680.652853,-1184.329507,7402.059420,-73545.167808
28680.655427,4885.359217,6069.688724,-73391.948708
28680.658002,14804.118840,3701.029710,-75843.454302
28680.660576,3701.029710,1776.494261,-75996.673402
28680.663151,3108.864956,6661.853478,-74617.701505
28680.665726,1628.453072,4589.276840,-76456.330700
28680.668300,6069.688724,1184.329507,-76303.111601
28680.670875,2812.782580,2516.700203,-74004.825107
28680.673449,16432.571912,740.205942,-74311.263306
28680.676024,6217.729913,-1036.288319,-76609.549800
28680.678600,8882.471304,-6809.894666,-77835.302597
28680.681177,-9030.512492,-2812.782580,-75996.673402
28680.683753,23094.425390,-2812.782580,-76149.892501
28680.686330,-26499.372724,5181.441594,-73698.386908
28680.688906,7698.141797,21317.931130,-74311.263306
28680.691483,-12139.377449,27683.702231,-71859.757712
28680.694059,-2220.617826,22058.137072,-71553.319513
28680.696636,740.205942,11399.171507,-74770.920605
28680.699212,4441.235652,2220.617826,-75690.235202
28680.701789,-8882.471304,8290.306550,-73851.606007
28680.704365,5033.400406,5773.606348,-79367.493593
28680.706942,-9770.718434,5033.400406,-77528.864398
28680.709518,1480.411884,8734.430116,-73238.729609
28680.712095,5921.647536,11251.130318,-73698.386908
28680.714671,-7550.100608,10066.800811,-75690.235202
28680.717247,2812.782580,10807.006753,-74464.482406
28680.719824,-13619.789333,16728.654289,-74004.825107
28680.722400,2072.576638,13619.789333,-75690.235202
28680.724977,-9030.512492,13619.789333,-74311.263306
28680.727553,11547.212695,9326.594869,-73851.606007
28680.730130,-3701.029710,9622.677246,-73851.606007
28680.732706,-2960.823768,12731.542202,-75077.358804
28680.735283,-8734.430116,17468.860231,-76149.892501
28680.737859,17320.819043,1184.329507,-76609.549800
28680.740436,-2664.741391,-148.041188,-72932.291410
28680.743012,32569.061448,-6513.812290,-76915.987999
28680.745589,2516.700203,-5033.400406,-76303.111601
28680.748165,5625.565159,444.123565,-76456.330700
28680.750742,1776.494261,9326.594869,-75230.577904
28680.753318,-5329.482782,4737.318029,-76762.768900
28680.755894,6069.688724,5625.565159,-73698.386908
28680.758471,14952.160028,3849.070898,-74770.920605
28680.761047,4737.318029,5033.400406,-75383.797003
28680.763624,11991.336260,3849.070898,-76456.330700
28680.766200,-5921.647536,5773.606348,-74924.139704
28680.768777,7698.141797,1776.494261,-76762.768900
28680.771353,4737.318029,740.205942,-75383.797003
28680.773930,7254.018232,2220.617826,-74158.044206
28680.776506,19097.313304,888.247130,-75383.797003
28680.779083,4589.276840,-2664.741391,-77069.207099
28680.781660,888.247130,-5033.400406,-75996.673402
28680.784237,3404.947333,-2072.576638,-75996.673402
28680.786814,7846.182985,-3552.988522,-76303.111601
28680.789392,-32569.061448,11991.336260,-74924.139704
28680.791969,20429.683999,16580.613101,-77528.864398
28680.794546,-24426.796086,27387.619854,-71553.319513
28680.797123,13915.871710,17024.736666,-71553.319513
28680.799700,-5921.647536,10658.965565,-74004.825107
28680.802278,1184.329507,6957.935855,-74158.044206
28680.804855,-6809.894666,12139.377449,-73851.606007
28680.807432,-2220.617826,6809.894666,-78601.398095
28680.810009,-7698.141797,8290.306550,-74617.701505
28680.812586,7550.100608,6809.894666,-72472.634111
28680.815164,-1480.411884,10658.965565,-73851.606007
28680.817741,-2220.617826,7698.141797,-76303.111601
28680.820318,-4885.359217,14508.036463,-74311.263306
28680.822895,-12139.377449,17320.819043,-75383.797003
28680.825473,-888.247130,13323.706956,-75077.358804
28680.828050,592.164754,11843.295072,-74004.825107
28680.830627,2664.741391,8290.306550,-73085.510509
28680.833204,-4885.359217,11399.171507,-73851.606007
28680.835781,-11103.089130,17468.860231,-75230.577904
28680.838359,22058.137072,1480.411884,-79061.055394
28680.840936,-16728.654289,-2812.782580,-73391.948708
28680.843513,32717.102636,-5921.647536,-76456.330700
28680.846090,9030.512492,-4885.359217,-75537.016103
28680.848668,8586.388927,-2516.700203,-76762.768900
28680.851245,740.205942,10066.800811,-74464.482406
28680.853822,-296.082377,5181.441594,-76456.330700
28680.856399,444.123565,5625.565159,-74158.044206
28680.858976,9918.759623,5181.441594,-74158.044206
28680.861554,7402.059420,4737.318029,-75537.016103
28680.864131,9770.718434,3849.070898,-76456.330700
28680.866708,4885.359217,4737.318029,-75230.577904
28680.869285,0.000000,3404.947333,-76149.892501
28680.871862,9178.553681,740.205942,-74924.139704
28680.874440,7254.018232,1036.288319,-74770.920605
28680.877017,17172.777854,740.205942,-76456.330700
28680.879594,7254.018232,-2664.741391,-77069.207099
28680.882171,2220.617826,-4737.318029,-75996.673402
28680.884749,444.123565,-4589.276840,-75996.673402
28680.887328,11103.089130,-3997.112087,-75230.577904
28680.889906,-30200.402434,8586.388927,-73085.510509
28680.892484,13027.624579,20133.601622,-76915.987999
28680.895062,-16580.613101,26647.413912,-71706.538613
28680.897640,9918.759623,16136.489536,-72319.415011
28680.900218,-888.247130,7402.059420,-75077.358804
28680.902796,888.247130,3701.029710,-74464.482406
28680.905374,-7846.182985,11399.171507,-74158.044206
28680.907952,-3701.029710,6365.771101,-79827.150892
28680.910530,-2960.823768,5181.441594,-77069.207099
28680.913108,-1184.329507,11547.212695,-71553.319513
28680.915687,-1036.288319,7846.182985,-74924.139704
28680.918265,-4293.194464,7846.182985,-75843.454302
28680.920843,-4441.235652,15248.242405,-74004.825107
28680.923421,-6957.935855,17764.942608,-75690.235202
28680.925999,-6957.935855,14804.118840,-75230.577904
28680.928577,7846.182985,11695.253884,-74617.701505
28680.931155,444.123565,8734.430116,-73085.510509
28680.933733,-6957.935855,10658.965565,-74158.044206
28680.936311,-8142.265362,19393.395680,-75230.577904
28680.938889,19097.313304,2664.741391,-79520.712692
28680.941468,-12731.542202,-2072.576638,-74464.482406
28680.944046,31236.690752,-7105.977043,-76303.111601
28680.946624,6957.935855,-5181.441594,-76303.111601
28680.949202,6957.935855,-3108.864956,-76303.111601
28680.951780,740.205942,9770.718434,-75383.797003
28680.954358,2516.700203,7846.182985,-76149.892501
28680.956936,1332.370696,3256.906145,-73851.606007
28680.959514,14656.077652,2220.617826,-73545.167808
28680.962092,-148.041188,5625.565159,-74770.920605
28680.964670,15544.324782,4589.276840,-76149.892501
28680.967248,-4737.318029,7550.100608,-74770.920605
28680.969827,8438.347739,2664.741391,-75537.016103
28680.972405,2812.782580,-592.164754,-75383.797003
28680.974983,7846.182985,1036.288319,-74158.044206
28680.977561,18209.066173,-296.082377,-75996.673402
28680.980139,5329.482782,-2664.741391,-76762.768900
28680.982717,-1332.370696,-3849.070898,-76149.892501
28680.985295,7994.224174,-3256.906145,-75537.016103
28680.987873,1628.453072,-3404.947333,-75537.016103
28680.990451,-29460.196492,13619.789333,-75230.577904
28680.993029,21910.095883,15988.448347,-77375.645298
28680.995607,-20577.725188,26795.455100,-72166.195912
28680.998185,13175.665768,11843.295072,-75230.577904
28681.000762,-4885.359217,740.205942,-77528.864398
28681.003340,-5477.523971,6809.894666,-73545.167808
28681.005918,444.123565,12583.501014,-74770.920605
28681.008496,-9770.718434,6365.771101,-80133.589091
28681.011074,-3404.947333,9030.512492,-75537.016103
28681.013652,0.000000,9178.553681,-72625.853210
28681.016230,5773.606348,3849.070898,-75690.235202
28681.018808,-11103.089130,11991.336260,-74924.139704
28681.021385,1332.370696,16284.530724,-74158.044206
28681.023963,-14063.912898,17764.942608,-75537.016103
28681.026541,1036.288319,14359.995275,-75077.358804
28681.029119,2664.741391,9770.718434,-73545.167808
28681.031697,-740.205942,7105.977043,-72932.291410
28681.034275,-6809.894666,13915.871710,-74004.825107
28681.036853,0.000000,16876.695478,-75996.673402
28681.039431,-888.247130,148.041188,-76456.330700
28681.042009,592.164754,-2368.659014,-74004.825107
28681.044586,29904.320057,-7550.100608,-76149.892501
28681.047164,1036.288319,-5181.441594,-76303.111601
28681.049742,8882.471304,1184.329507,-75843.454302
28681.052320,4885.359217,10510.924376,-75230.577904
28681.054898,-4145.153275,5773.606348,-76149.892501
28681.057476,6809.894666,2516.700203,-73545.167808
28681.060054,4441.235652,4589.276840,-74770.920605
28681.062632,8438.347739,4145.153275,-77069.207099
28681.065209,8438.347739,6513.812290,-75230.577904
28681.067787,2220.617826,6217.729913,-75230.577904
28681.070365,7254.018232,-888.247130,-76609.549800
28681.072943,3256.906145,592.164754,-75690.235202
28681.075521,12139.377449,-148.041188,-75383.797003
28681.078099,16580.613101,1480.411884,-75383.797003
28681.080677,1480.411884,-4441.235652,-76609.549800
28681.083255,6661.853478,-3404.947333,-76609.549800
28681.085833,6513.812290,-4737.318029,-75537.016103
28681.088410,-22946.384202,4885.359217,-74158.044206
28681.090988,4589.276840,21317.931130,-75537.016103
28681.093566,-9030.512492,28423.908173,-72932.291410
28681.096144,-3256.906145,22502.260637,-71706.538613
28681.098721,7698.141797,9178.553681,-73851.606007
28681.101299,-148.041188,-2220.617826,-76609.549800
28681.103877,-4737.318029,11103.089130,-72932.291410
28681.106454,-5477.523971,8290.306550,-80133.589091
28681.109032,-1628.453072,4737.318029,-79520.712692
28681.111610,-296.082377,11251.130318,-71859.757712
28681.114187,2812.782580,7402.059420,-72625.853210
28681.116765,-6069.688724,6069.688724,-77222.426198
28681.119343,-592.164754,15100.201217,-74004.825107
28681.121921,-10955.047942,20577.725188,-73545.167808
28681.124498,-9622.677246,17616.901420,-74924.139704
28681.127076,11103.089130,9030.512492,-75537.016103
28681.129654,-5773.606348,9178.553681,-71246.881314
28681.132231,-1776.494261,11251.130318,-74004.825107
28681.134809,-7402.059420,18801.230927,-75230.577904
28681.137387,18949.272115,2960.823768,-77835.302597
28681.139965,-16136.489536,-888.247130,-74158.044206
28681.142542,36566.173535,-7994.224174,-76762.768900
28681.145120,-1628.453072,-5033.400406,-75996.673402
28681.147698,10362.883188,-1036.288319,-76915.987999
28681.150275,4589.276840,11103.089130,-75996.673402
28681.152853,-592.164754,6957.935855,-76456.330700
28681.155431,4589.276840,2960.823768,-74464.482406
28681.158009,9770.718434,740.205942,-74617.701505
28681.160586,592.164754,5921.647536,-75843.454302
28681.163164,16136.489536,7105.977043,-77375.645298
28681.165742,6069.688724,4145.153275,-75996.673402
28681.168319,2960.823768,1332.370696,-75383.797003
28681.170897,9326.594869,-1628.453072,-74924.139704
28681.173475,5921.647536,592.164754,-74464.482406
28681.176052,18209.066173,0.000000,-75230.577904
28681.178630,-1776.494261,-1480.411884,-76915.987999
28681.181208,4589.276840,-2812.782580,-76609.549800
28681.183786,12139.377449,-3552.988522,-76762.768900
28681.186363,-30200.402434,5921.647536,-72779.072310
28681.188941,11399.171507,21021.848753,-75077.358804
28681.191519,-16580.613101,29164.114115,-70634.004916
28681.194096,1924.535449,21317.931130,-72166.195912
28681.196674,148.041188,10362.883188,-73851.606007
28681.199251,5033.400406,-3997.112087,-77375.645298
28681.201829,-14063.912898,7698.141797,-73238.729609
28681.204406,9030.512492,9918.759623,-77835.302597
28681.206984,-11843.295072,9918.759623,-77069.207099
28681.209561,3256.906145,6217.729913,-73238.729609
28681.212138,2516.700203,6365.771101,-72472.634111
28681.214716,-5921.647536,7698.141797,-75383.797003
28681.217293,-1184.329507,16136.489536,-74464.482406
28681.219871,-8882.471304,19985.560434,-75077.358804
28681.222448,-6217.729913,17764.942608,-74617.701505
28681.225026,6513.812290,10214.842000,-75230.577904
28681.227603,-4737.318029,7254.018232,-72472.634111
28681.230181,-5181.441594,12435.459826,-73391.948708
28681.232758,4293.194464,16432.571912,-75537.016103
28681.235336,6957.935855,2812.782580,-76456.330700
28681.237913,-10955.047942,-592.164754,-73698.386908
28681.240491,35825.967593,-8142.265362,-77528.864398
28681.243068,-4293.194464,-4885.359217,-75690.235202
28681.245645,14952.160028,-2220.617826,-77222.426198
28681.248223,5329.482782,10658.965565,-76149.892501
28681.250800,-3256.906145,6365.771101,-75537.016103
28681.253378,6365.771101,1036.288319,-74770.920605
28681.255955,5625.565159,3404.947333,-74617.701505
28681.258533,9326.594869,5033.400406,-76303.111601
28681.261110,7550.100608,7846.182985,-76149.892501
28681.263688,3849.070898,4441.235652,-75077.358804
28681.266265,4441.235652,-148.041188,-75537.016103
28681.268843,9918.759623,-1628.453072,-74924.139704
28681.271420,10066.800811,-2516.700203,-75537.016103
28681.273998,14952.160028,-444.123565,-75230.577904
28681.276575,-6069.688724,-3552.988522,-77988.521696
28681.279153,15248.242405,-3997.112087,-76762.768900
28681.281730,-3552.988522,-5329.482782,-75690.235202
28681.284307,-26795.455100,12435.459826,-75077.358804
28681.286885,18209.066173,16136.489536,-77222.426198
28681.289462,-19541.436869,27387.619854,-72012.976812
28681.292040,16580.613101,17320.819043,-72625.853210
28681.294617,-3256.906145,5033.400406,-74924.139704
28681.297194,2812.782580,1628.453072,-74770.920605
28681.299771,-8882.471304,11695.253884,-73545.167808
28681.302348,-7254.018232,9622.677246,-79367.493593
28681.304924,-11399.171507,9178.553681,-75383.797003
28681.307501,11695.253884,7105.977043,-74004.825107
28681.310078,-5329.482782,4589.276840,-74311.263306
28681.312655,-592.164754,8882.471304,-76149.892501
28681.315231,-10066.800811,18505.148550,-74770.920605
28681.317808,-4293.194464,18357.107362,-75383.797003
28681.320385,-3849.070898,16876.695478,-74311.263306
28681.322962,-1332.370696,7846.182985,-74158.044206
28681.325538,-6661.853478,8586.388927,-72932.291410
28681.328115,-1776.494261,18505.148550,-74004.825107
28681.330692,17468.860231,6217.729913,-77835.302597
28681.333269,-14656.077652,-1184.329507,-75537.016103
28681.335845,26499.372724,-4589.276840,-76149.892501
28681.338422,7550.100608,-5477.523971,-75383.797003
28681.340999,6513.812290,-3404.947333,-76149.892501
28681.343576,-888.247130,11251.130318,-75230.577904
28681.346152,7846.182985,8142.265362,-76609.549800
28681.348729,-2072.576638,2960.823768,-74311.263306
28681.351306,9474.636058,444.123565,-74004.825107
28681.353883,-296.082377,6365.771101,-75077.358804
28681.356459,13767.830521,7254.018232,-76762.768900
28681.359036,5033.400406,6957.935855,-75996.673402
28681.361613,3108.864956,2220.617826,-76149.892501
28681.364190,14656.077652,-2960.823768,-75383.797003
28681.366766,2960.823768,-740.205942,-74311.263306
28681.369343,20725.766376,-1480.411884,-75230.577904
28681.371920,-5329.482782,-1480.411884,-75843.454302
28681.374497,8882.471304,-1628.453072,-76762.768900
28681.377073,9622.677246,-4145.153275,-75690.235202
28681.379650,-20429.683999,2664.741391,-73085.510509
28681.382227,2664.741391,20577.725188,-75383.797003
28681.384804,-18801.230927,28423.908173,-72166.195912
28681.387380,5033.400406,21021.848753,-72012.976812
28681.389957,2220.617826,10510.924376,-74311.263306
28681.392534,4145.153275,-1924.535449,-76303.111601
28681.395111,-9474.636058,7402.059420,-73391.948708
28681.397687,1184.329507,7994.224174,-78601.398095
28681.400263,-13027.624579,8290.306550,-79214.274493
28681.402839,1776.494261,7402.059420,-74158.044206
28681.405415,7846.182985,1184.329507,-74617.701505
28681.407991,-10214.842000,8290.306550,-74617.701505
28681.410566,592.164754,15396.283594,-75843.454302
28681.413142,-13027.624579,20429.683999,-75077.358804
28681.415718,-444.123565,18505.148550,-74924.139704
28681.418294,0.000000,10214.842000,-73851.606007
28681.420870,-3701.029710,6809.894666,-73698.386908
28681.423445,-8438.347739,14804.118840,-72779.072310
28681.426021,22650.301825,6217.729913,-77988.521696
28681.428597,-16432.571912,-148.041188,-75843.454302
28681.431173,29460.196492,-3997.112087,-76456.330700
28681.433749,1480.411884,-2812.782580,-75077.358804
28681.436325,13915.871710,-5033.400406,-77682.083497
28681.438900,-296.082377,8882.471304,-74464.482406
28681.441476,8290.306550,9918.759623,-76149.892501
28681.444052,1184.329507,5773.606348,-74464.482406
28681.446628,7550.100608,2072.576638,-73698.386908
28681.449204,5921.647536,6069.688724,-74464.482406
28681.451779,4293.194464,6661.853478,-77375.645298
28681.454355,10658.965565,6809.894666,-75383.797003
28681.456931,1776.494261,2960.823768,-74924.139704
28681.459507,12435.459826,148.041188,-74617.701505
28681.462083,4885.359217,-3108.864956,-74617.701505
28681.464659,15988.448347,-1628.453072,-75996.673402
28681.467234,-444.123565,-3404.947333,-76762.768900
28681.469810,5181.441594,-1036.288319,-77528.864398
28681.472386,11991.336260,-5329.482782,-76456.330700
28681.474962,-28868.031738,5625.565159,-72166.195912
28681.477538,8438.347739,17172.777854,-74617.701505
28681.480113,-17616.901420,28868.031738,-72319.415011
28681.482689,3997.112087,21910.095883,-72319.415011
28681.485265,1184.329507,13027.624579,-72779.072310
28681.487841,6069.688724,-3849.070898,-75537.016103
28681.490417,-12139.377449,8586.388927,-73545.167808
28681.492993,3701.029710,7402.059420,-79367.493593
28681.495568,-15840.407159,7994.224174,-77835.302597
28681.498144,11103.089130,7846.182985,-74158.044206
28681.500720,-7402.059420,6661.853478,-72012.976812
28681.503295,2072.576638,7254.018232,-75230.577904
28681.505870,-8142.265362,15988.448347,-75077.358804
28681.508445,-6365.771101,20281.642811,-75690.235202
28681.511020,-2664.741391,17172.777854,-73698.386908
28681.513596,-1184.329507,9474.636058,-74311.263306
28681.516171,-6957.935855,8438.347739,-73085.510509
28681.518746,-3701.029710,17172.777854,-72779.072310
28681.521321,21614.013506,6809.894666,-76915.987999
28681.523896,-13323.706956,-1480.411884,-75843.454302
28681.526471,22058.137072,-2072.576638,-76609.549800
28681.529046,10214.842000,-5625.565159,-75996.673402
28681.531621,6957.935855,-1036.288319,-75843.454302
28681.534196,3256.906145,11547.212695,-76149.892501
28681.536771,3849.070898,10066.800811,-77222.426198
28681.539347,5921.647536,3404.947333,-73698.386908
28681.541922,444.123565,2516.700203,-72779.072310
28681.544497,12435.459826,2516.700203,-75843.454302
28681.547072,6661.853478,8142.265362,-77682.083497
28681.549647,6809.894666,9178.553681,-74004.825107
28681.552222,8882.471304,1036.288319,-75537.016103
28681.554797,3256.906145,-888.247130,-75230.577904
28681.557372,17468.860231,-3701.029710,-75230.577904
28681.559947,3256.906145,444.123565,-74158.044206
28681.562523,4145.153275,-2368.659014,-76762.768900
28681.565098,6513.812290,-1628.453072,-76915.987999
28681.567673,9474.636058,-5033.400406,-76609.549800
28681.570248,-32421.020260,7846.182985,-72779.072310
28681.572823,18209.066173,14211.954086,-78141.740796
28681.575398,-20429.683999,24722.878463,-73545.167808
28681.577973,15544.324782,17172.777854,-72932.291410
28681.580548,-888.247130,3701.029710,-75230.577904
28681.583123,-1036.288319,592.164754,-74311.263306
28681.585695,-3256.906145,13471.748144,-72625.853210
28681.588269,-13619.789333,10510.924376,-79061.055394
28681.590844,3849.070898,7402.059420,-77682.083497
28681.593418,-8438.347739,9622.677246,-71093.662214
28681.595993,6513.812290,2368.659014,-74311.263306
28681.598567,-9178.553681,10658.965565,-76149.892501
28681.601142,1036.288319,15840.407159,-76149.892501
28681.603716,-14063.912898,21465.972318,-75690.235202
28681.606291,5033.400406,12583.501014,-74617.701505
28681.608865,-5921.647536,8290.306550,-73391.948708
28681.611440,-8438.347739,11991.336260,-72625.853210
28681.614014,19985.560434,13323.706956,-75077.358804
28681.616589,-4737.318029,2368.659014,-76149.892501
28681.619164,3404.947333,-2812.782580,-76149.892501
28681.621738,21465.972318,-5773.606348,-76609.549800
28681.624313,148.041188,-6661.853478,-75537.016103
28681.626887,12287.418637,2072.576638,-77222.426198
28681.629462,444.123565,13619.789333,-76303.111601
28681.632036,2516.700203,8290.306550,-75843.454302
28681.634611,7994.224174,296.082377,-74004.825107
28681.637185,-1924.535449,3997.112087,-74617.701505
28681.639760,13175.665768,6957.935855,-77069.207099
28681.642334,5477.523971,9770.718434,-77222.426198
28681.644909,5773.606348,3997.112087,-75843.454302
28681.647483,10362.883188,-1480.411884,-75843.454302
28681.650058,5181.441594,-4145.153275,-75230.577904
28681.652632,18357.107362,-3404.947333,-76456.330700
28681.655207,-2072.576638,-3552.988522,-76762.768900
28681.657781,8734.430116,-740.205942,-77222.426198
28681.660356,9622.677246,-3997.112087,-76149.892501
28681.662930,-24278.754898,2812.782580,-72472.634111
28681.665505,4737.318029,17764.942608,-74158.044206
28681.668079,-14211.954086,27091.537477,-73238.729609
28681.670654,-1184.329507,22354.219448,-72625.853210
28681.673228,5625.565159,12879.583391,-72625.853210
28681.675803,6365.771101,-1480.411884,-75383.797003
28681.678377,-9030.512492,6365.771101,-73545.167808
28681.680952,1776.494261,6809.894666,-80440.027290
28681.683526,-13471.748144,8586.388927,-77682.083497
28681.686101,3997.112087,8586.388927,-72166.195912
28681.688675,-2368.659014,2812.782580,-74004.825107
28681.691248,-2368.659014,9030.512492,-75996.673402
28681.693822,-2368.659014,17912.983796,-75383.797003
28681.696395,-9030.512492,20725.766376,-74924.139704
28681.698969,1332.370696,15692.365970,-74004.825107
28681.701542,-7254.018232,9326.594869,-74004.825107
28681.704116,-5329.482782,9918.759623,-73391.948708
28681.706689,-2072.576638,17468.860231,-73545.167808
28681.709263,12731.542202,2368.659014,-76149.892501
