#time,accel_x,accel_y,accel_z
26653.245468,9918.759623,4737.318029,-77222.426198
26653.247891,-444.123565,9474.636058,-75230.577904
26653.250315,7550.100608,4293.194464,-75383.797003
26653.252738,-1036.288319,5181.441594,-74004.825107
26653.255161,13027.624579,6513.812290,-75077.358804
26653.257585,7698.141797,5921.647536,-74617.701505
26653.260096,11251.130318,7402.059420,-74464.482406
26653.262606,-6217.729913,3256.906145,-75230.577904
26653.265117,-6957.935855,10362.883188,-75383.797003
26653.267628,-13027.624579,4589.276840,-76762.768900
26653.270138,-3997.112087,8142.265362,-74617.701505
26653.272649,11547.212695,5181.441594,-74464.482406
26653.275160,9918.759623,7994.224174,-75690.235202
26653.277671,3701.029710,6217.729913,-74311.263306
26653.280181,-6217.729913,6809.894666,-74770.920605
26653.282692,-16728.654289,6217.729913,-75383.797003
26653.285203,-3997.112087,6217.729913,-75690.235202
26653.287713,2664.741391,7402.059420,-74617.701505
26653.290224,9474.636058,7254.018232,-75690.235202
26653.292735,-6957.935855,7402.059420,-74311.263306
26653.295246,6217.729913,3997.112087,-75843.454302
26653.297756,-16432.571912,6809.894666,-73698.386908
26653.300267,14063.912898,4589.276840,-75230.577904
26653.302778,-19097.313304,9326.594869,-72932.291410
26653.305288,21021.848753,4293.194464,-75996.673402
26653.307799,-13767.830521,9326.594869,-72472.634111
26653.310310,8290.306550,2812.782580,-75843.454302
26653.312821,-13915.871710,8142.265362,-75537.016103
26653.315331,2812.782580,4589.276840,-75843.454302
26653.317842,-2812.782580,8882.471304,-75690.235202
26653.320353,8586.388927,5329.482782,-76609.549800
26653.322863,1628.453072,8438.347739,-73851.606007
26653.325374,-7698.141797,3849.070898,-74617.701505
26653.327885,-6365.771101,7105.977043,-75383.797003
26653.330396,-14359.995275,4885.359217,-76456.330700
26653.332906,13323.706956,7846.182985,-75690.235202
26653.335417,15988.448347,7846.182985,-74924.139704
26653.337928,3849.070898,3256.906145,-74464.482406
26653.340438,-8882.471304,6069.688724,-74770.920605
26653.342949,-18209.066173,4293.194464,-75230.577904
26653.345460,2220.617826,7402.059420,-75077.358804
26653.347971,13767.830521,13323.706956,-74617.701505
26653.350481,-4145.153275,4293.194464,-76609.549800
26653.352992,27535.661042,4145.153275,-73545.167808
26653.355503,-5329.482782,6365.771101,-72166.195912
26653.358014,888.247130,2664.741391,-76149.892501
26653.360574,-4589.276840,6661.853478,-75230.577904
26653.363135,4293.194464,7550.100608,-74924.139704
26653.365696,20281.642811,9622.677246,-75843.454302
26653.368257,-2960.823768,6069.688724,-75537.016103
26653.370818,3701.029710,2072.576638,-74311.263306
26653.373379,444.123565,5625.565159,-74770.920605
26653.375940,-2664.741391,6513.812290,-77528.864398
26653.378501,12287.418637,7254.018232,-75843.454302
26653.381062,19837.519246,9622.677246,-75230.577904
26653.383623,2960.823768,5181.441594,-74464.482406
26653.386184,-7846.182985,2220.617826,-73391.948708
26653.388745,18209.066173,4441.235652,-73851.606007
26653.391306,-29608.237680,9178.553681,-74158.044206
26653.393867,37898.544230,7550.100608,-77988.521696
26653.396428,-23982.672521,8734.430116,-74158.044206
26653.398989,24574.837274,5477.523971,-76456.330700
26653.401550,9622.677246,5625.565159,-73698.386908
26653.404111,-12435.459826,3701.029710,-75077.358804
26653.406672,18505.148550,7846.182985,-73391.948708
26653.409232,-10066.800811,8142.265362,-76149.892501
26653.411793,27239.578666,7254.018232,-76149.892501
26653.414354,-5625.565159,9178.553681,-73391.948708
26653.416915,14211.954086,1480.411884,-75843.454302
26653.419476,-9770.718434,6217.729913,-72779.072310
26653.422037,592.164754,7254.018232,-74924.139704
26653.424598,2368.659014,7402.059420,-75383.797003
26653.427159,11547.212695,6809.894666,-74924.139704
26653.429720,20281.642811,9030.512492,-75383.797003
26653.432281,9178.553681,3552.988522,-74004.825107
26653.434842,-11843.295072,1480.411884,-74464.482406
26653.437403,5921.647536,8438.347739,-75077.358804
26653.439964,3552.988522,11399.171507,-75230.577904
26653.442525,2812.782580,6069.688724,-76456.330700
26653.445086,-2220.617826,6809.894666,-73391.948708
26653.447647,1776.494261,5773.606348,-75230.577904
26653.450208,-2516.700203,4293.194464,-75383.797003
26653.452769,-13027.624579,6217.729913,-74464.482406
26653.455330,7550.100608,5477.523971,-75690.235202
26653.457890,10066.800811,9326.594869,-75383.797003
26653.460451,296.082377,6217.729913,-75230.577904
26653.463043,-7994.224174,7254.018232,-75230.577904
26653.465635,-7402.059420,3552.988522,-75230.577904
26653.468227,-13471.748144,5625.565159,-74004.825107
26653.470819,9178.553681,6365.771101,-74004.825107
26653.473410,5329.482782,10658.965565,-74924.139704
26653.476002,12583.501014,6809.894666,-76762.768900
26653.478594,-1480.411884,5625.565159,-75230.577904
26653.481186,-20133.601622,3849.070898,-74311.263306
26653.483777,-9030.512492,5033.400406,-75077.358804
26653.486369,5477.523971,8734.430116,-75843.454302
26653.488961,740.205942,7846.182985,-74924.139704
26653.491553,12435.459826,8734.430116,-75537.016103
26653.494145,-3404.947333,5921.647536,-74617.701505
26653.496736,6957.935855,2516.700203,-75690.235202
26653.499328,-11103.089130,6957.935855,-74004.825107
26653.501920,1036.288319,6513.812290,-76456.330700
26653.504512,-6365.771101,7402.059420,-77375.645298
26653.507104,14952.160028,7254.018232,-77069.207099
26653.509695,-6809.894666,4885.359217,-75843.454302
26653.512287,296.082377,5921.647536,-75996.673402
26653.514879,-8290.306550,5329.482782,-75077.358804
26653.517471,4441.235652,5921.647536,-76149.892501
26653.520062,-3701.029710,9474.636058,-74770.920605
26653.522654,-148.041188,5773.606348,-75843.454302
26653.525246,-8142.265362,7254.018232,-74617.701505
26653.527838,4589.276840,4145.153275,-74924.139704
26653.530430,6957.935855,8586.388927,-74158.044206
26653.533021,1776.494261,3849.070898,-74617.701505
26653.535613,-6365.771101,7550.100608,-74311.263306
26653.538205,-7105.977043,7402.059420,-76303.111601
26653.540797,-1628.453072,7994.224174,-75230.577904
26653.543389,21021.848753,9326.594869,-76609.549800
26653.545980,-1628.453072,3108.864956,-75230.577904
26653.548572,21465.972318,1628.453072,-75383.797003
26653.551164,10510.924376,6069.688724,-75383.797003
26653.553756,1332.370696,6365.771101,-77835.302597
26653.556348,-2812.782580,7254.018232,-74924.139704
26653.558939,9622.677246,6661.853478,-74924.139704
26653.561531,16876.695478,9326.594869,-74464.482406
26653.564123,-7254.018232,3552.988522,-76303.111601
26653.566619,11695.253884,2220.617826,-75230.577904
26653.569115,-10362.883188,9622.677246,-74004.825107
26653.571611,2220.617826,6069.688724,-76149.892501
26653.574107,2368.659014,8290.306550,-75996.673402
26653.576604,29756.278868,8142.265362,-76456.330700
26653.579100,444.123565,6957.935855,-75230.577904
26653.581596,13767.830521,1184.329507,-76303.111601
26653.584092,-592.164754,7846.182985,-73698.386908
26653.586588,-2960.823768,6957.935855,-76456.330700
26653.589084,19245.354492,7698.141797,-75537.016103
26653.591580,-5181.441594,5773.606348,-75383.797003
26653.594076,26499.372724,6365.771101,-75690.235202
26653.596573,-14211.954086,2664.741391,-75230.577904
26653.599069,13175.665768,6217.729913,-73545.167808
26653.601565,-10362.883188,8290.306550,-74004.825107
26653.604061,6957.935855,8882.471304,-75843.454302
26653.606557,7105.977043,7698.141797,-74311.263306
26653.609053,3256.906145,6365.771101,-73545.167808
26653.611549,2516.700203,5181.441594,-74617.701505
26653.614045,-5477.523971,3701.029710,-76149.892501
26653.616542,6661.853478,8882.471304,-74311.263306
26653.619038,17024.736666,7846.182985,-74770.920605
26653.621534,19393.395680,6809.894666,-76303.111601
26653.624030,-3849.070898,4145.153275,-74770.920605
26653.626526,-12435.459826,3701.029710,-74158.044206
26653.629022,13619.789333,6661.853478,-75383.797003
26653.631518,-4293.194464,10362.883188,-76149.892501
26653.634015,11547.212695,3849.070898,-76303.111601
26653.636511,-10362.883188,6513.812290,-74924.139704
26653.639007,1924.535449,7550.100608,-76762.768900
26653.641503,-11251.130318,5921.647536,-74311.263306
26653.643999,3404.947333,5033.400406,-73851.606007
26653.646495,5921.647536,6957.935855,-74617.701505
26653.648991,9770.718434,7254.018232,-77528.864398
26653.651487,592.164754,7994.224174,-75690.235202
26653.653984,-14359.995275,5329.482782,-75690.235202
26653.656480,-12287.418637,5625.565159,-74924.139704
26653.658976,148.041188,1776.494261,-75077.358804
26653.661472,8882.471304,10955.047942,-74158.044206
26653.663968,3849.070898,6809.894666,-76149.892501
26653.666512,3256.906145,9030.512492,-76456.330700
26653.669055,-1924.535449,5033.400406,-75537.016103
26653.671599,-11399.171507,6069.688724,-75996.673402
26653.674142,-13471.748144,3404.947333,-76303.111601
26653.676686,19837.519246,6809.894666,-75077.358804
26653.679229,-22502.260637,8734.430116,-72779.072310
26653.681773,38194.626607,3701.029710,-76149.892501
26653.684316,-33901.432144,9030.512492,-75690.235202
26653.686860,10510.924376,2072.576638,-76303.111601
26653.689403,-22058.137072,5773.606348,-74617.701505
26653.691947,17468.860231,6809.894666,-77835.302597
26653.694490,-2812.782580,9474.636058,-76303.111601
26653.697034,-8882.471304,6661.853478,-73851.606007
26653.699577,7846.182985,4145.153275,-74924.139704
26653.702121,-14656.077652,7994.224174,-73545.167808
26653.704664,2368.659014,4293.194464,-75690.235202
26653.707208,-11991.336260,8586.388927,-75537.016103
26653.709751,5625.565159,6069.688724,-75996.673402
26653.712295,-5181.441594,7698.141797,-74617.701505
26653.714838,19541.436869,5033.400406,-75230.577904
26653.717382,-3108.864956,5773.606348,-75996.673402
26653.719925,-3701.029710,7105.977043,-74158.044206
26653.722469,-13471.748144,6661.853478,-75690.235202
26653.725012,-14508.036463,6809.894666,-77835.302597
26653.727556,31680.814318,10066.800811,-76609.549800
26653.730099,-12731.542202,3256.906145,-74311.263306
26653.732643,25907.207970,1036.288319,-73698.386908
26653.735186,4589.276840,4145.153275,-72625.853210
26653.737730,-1628.453072,7105.977043,-76303.111601
26653.740273,-2072.576638,7994.224174,-75843.454302
26653.742817,7105.977043,7402.059420,-74924.139704
26653.745360,23834.631332,8290.306550,-74770.920605
26653.747904,-7846.182985,6365.771101,-73545.167808
26653.750447,10510.924376,1480.411884,-75996.673402
26653.752991,-1924.535449,9326.594869,-73085.510509
26653.755534,-11251.130318,5329.482782,-78141.740796
26653.758078,9622.677246,8438.347739,-77069.207099
26653.760621,10955.047942,10807.006753,-73238.729609
26653.763165,7994.224174,2812.782580,-75690.235202
26653.765708,2960.823768,1628.453072,-74617.701505
26653.768285,2664.741391,7550.100608,-73238.729609
26653.770861,-1628.453072,6809.894666,-76609.549800
26653.773437,-5773.606348,7402.059420,-76456.330700
26653.776013,11547.212695,9622.677246,-75383.797003
26653.778589,12287.418637,6661.853478,-75077.358804
26653.781165,3997.112087,3997.112087,-74770.920605
26653.783741,11547.212695,6069.688724,-74617.701505
26653.786317,-3552.988522,6069.688724,-75077.358804
26653.788893,2368.659014,7550.100608,-76915.987999
26653.791469,-1776.494261,6661.853478,-75383.797003
26653.794045,9474.636058,9326.594869,-74924.139704
26653.796621,3404.947333,2812.782580,-74617.701505
26653.799197,3849.070898,6069.688724,-74924.139704
26653.801773,14508.036463,7254.018232,-74770.920605
26653.804350,5625.565159,7994.224174,-75077.358804
26653.806926,5181.441594,7105.977043,-75690.235202
26653.809502,-5625.565159,6957.935855,-75537.016103
26653.812078,4441.235652,6217.729913,-75690.235202
26653.814654,3552.988522,7105.977043,-75230.577904
26653.817230,12139.377449,4441.235652,-74924.139704
26653.819806,-26203.290347,5181.441594,-74158.044206
26653.822382,8142.265362,6809.894666,-77222.426198
26653.824958,-16876.695478,9474.636058,-74617.701505
26653.827534,12287.418637,3849.070898,-76149.892501
26653.830110,14508.036463,7994.224174,-74311.263306
26653.832686,1924.535449,4441.235652,-75996.673402
26653.835262,0.000000,7698.141797,-75383.797003
26653.837839,-9770.718434,7846.182985,-76303.111601
26653.840415,-15396.283594,6069.688724,-77222.426198
26653.842991,5329.482782,3552.988522,-74924.139704
26653.845567,14211.954086,10955.047942,-72932.291410
26653.848143,-888.247130,4293.194464,-76609.549800
26653.850719,12287.418637,4589.276840,-77069.207099
26653.853295,-1776.494261,8142.265362,-74617.701505
26653.855871,-22354.219448,6661.853478,-75843.454302
26653.858447,-7550.100608,6069.688724,-76456.330700
26653.861023,6365.771101,9178.553681,-73238.729609
26653.863599,13323.706956,3997.112087,-76149.892501
26653.866175,-740.205942,4441.235652,-75537.016103
26653.868751,4589.276840,5033.400406,-74617.701505
26653.871259,-16728.654289,5921.647536,-75537.016103
26653.873766,2960.823768,5329.482782,-75077.358804
26653.876273,-7994.224174,10214.842000,-73851.606007
26653.878781,11991.336260,5329.482782,-76303.111601
26653.881288,2516.700203,7105.977043,-73545.167808
26653.883796,-6069.688724,4145.153275,-74311.263306
26653.886303,-8882.471304,6661.853478,-75996.673402
26653.888810,-13027.624579,7402.059420,-75383.797003
26653.891318,-4441.235652,8438.347739,-75537.016103
26653.893825,11695.253884,7846.182985,-75996.673402
26653.896332,21762.054695,8586.388927,-74464.482406
26653.898840,-6069.688724,1776.494261,-74464.482406
26653.901347,-2072.576638,6069.688724,-74311.263306
26653.903855,-18357.107362,8290.306550,-75077.358804
26653.906362,-444.123565,7698.141797,-75843.454302
26653.908869,29016.072926,14656.077652,-75383.797003
26653.911377,2368.659014,3849.070898,-77682.083497
26653.913884,45004.521274,2368.659014,-76762.768900
26653.916391,2220.617826,3256.906145,-75843.454302
26653.918899,740.205942,4589.276840,-78141.740796
26653.921406,1332.370696,7698.141797,-75383.797003
26653.923914,-6513.812290,9178.553681,-76303.111601
26653.926421,29016.072926,7846.182985,-76456.330700
26653.928928,-3256.906145,6513.812290,-73545.167808
26653.931436,6661.853478,-1332.370696,-76609.549800
26653.933943,-2220.617826,6957.935855,-74158.044206
26653.936450,-7698.141797,7698.141797,-77835.302597
26653.938958,1628.453072,10362.883188,-76303.111601
26653.941465,22206.178260,7846.182985,-76303.111601
26653.943972,4589.276840,7105.977043,-74924.139704
26653.946480,10807.006753,740.205942,-74770.920605
26653.948987,-1628.453072,5625.565159,-73391.948708
26653.951495,2664.741391,8734.430116,-75537.016103
26653.954002,-13619.789333,7994.224174,-76609.549800
26653.956509,23538.548956,8142.265362,-76915.987999
26653.959017,14211.954086,7254.018232,-75383.797003
26653.961524,5773.606348,4589.276840,-75077.358804
26653.964031,-3701.029710,1184.329507,-74311.263306
26653.966539,5625.565159,7846.182985,-74464.482406
26653.969046,-10955.047942,9178.553681,-76149.892501
26653.971595,9326.594869,7550.100608,-77528.864398
26653.974143,8586.388927,8734.430116,-73698.386908
26653.976692,8142.265362,2664.741391,-75690.235202
26653.979240,18505.148550,5773.606348,-74617.701505
26653.981789,2516.700203,4737.318029,-74311.263306
26653.984338,-4441.235652,5181.441594,-75383.797003
26653.986886,5181.441594,12583.501014,-74770.920605
26653.989435,-8882.471304,8142.265362,-77222.426198
26653.991983,26647.413912,5921.647536,-75996.673402
26653.994532,-12731.542202,2960.823768,-73698.386908
26653.997080,-17172.777854,1036.288319,-77375.645298
26653.999629,10807.006753,5181.441594,-77528.864398
26654.002178,-11991.336260,14063.912898,-73698.386908
26654.004726,-1776.494261,5033.400406,-76609.549800
26654.007275,22650.301825,9030.512492,-75230.577904
26654.009823,-3701.029710,5181.441594,-73391.948708
26654.012372,-16580.613101,3849.070898,-76149.892501
26654.014920,592.164754,3404.947333,-77528.864398
26654.017469,-6809.894666,9622.677246,-75230.577904
26654.020018,-11103.089130,4885.359217,-76609.549800
26654.022566,16728.654289,8882.471304,-75537.016103
26654.025115,2516.700203,6365.771101,-73391.948708
26654.027663,1924.535449,2960.823768,-73851.606007
26654.030212,-4145.153275,6957.935855,-74464.482406
26654.032760,-22206.178260,7105.977043,-76915.987999
26654.035309,11991.336260,6217.729913,-76303.111601
26654.037858,3404.947333,8882.471304,-75230.577904
26654.040406,11991.336260,3849.070898,-76303.111601
26654.042955,-6513.812290,5625.565159,-74617.701505
26654.045503,-2368.659014,4589.276840,-75996.673402
26654.048052,-18653.189738,7550.100608,-75537.016103
26654.050600,5625.565159,7105.977043,-76762.768900
26654.053149,-6513.812290,9918.759623,-75996.673402
26654.055697,17320.819043,6661.853478,-75230.577904
26654.058246,-11251.130318,5773.606348,-73545.167808
26654.060795,-2072.576638,3552.988522,-76456.330700
26654.063343,-20873.807564,7402.059420,-75690.235202
26654.065892,-2812.782580,9030.512492,-76303.111601
26654.068440,20133.601622,9474.636058,-76303.111601
26654.070989,-1924.535449,6069.688724,-74924.139704
26654.073484,9178.553681,740.205942,-74004.825107
26654.075981,-17468.860231,3552.988522,-74924.139704
26654.078479,-7402.059420,7994.224174,-76303.111601
26654.080977,22206.178260,9326.594869,-75230.577904
26654.083475,-4145.153275,8142.265362,-74464.482406
26654.085973,23538.548956,6217.729913,-72932.291410
26654.088471,11547.212695,6809.894666,-71553.319513
26654.090969,-21465.972318,6513.812290,-72625.853210
26654.093467,-2220.617826,5033.400406,-76609.549800
26654.095965,-1184.329507,11251.130318,-74770.920605
26654.098463,14952.160028,7105.977043,-76149.892501
26654.100961,20577.725188,10066.800811,-75383.797003
26654.103459,1332.370696,3849.070898,-76303.111601
26654.105957,296.082377,1480.411884,-74464.482406
26654.108455,4441.235652,7550.100608,-74464.482406
26654.110953,-17764.942608,10214.842000,-76609.549800
26654.113451,17912.983796,8290.306550,-77835.302597
26654.115949,14359.995275,8586.388927,-75383.797003
26654.118447,9474.636058,3701.029710,-75843.454302
26654.120945,-7698.141797,1332.370696,-74924.139704
26654.123443,16136.489536,6217.729913,-73698.386908
26654.125941,-15100.201217,7402.059420,-75383.797003
26654.128439,15544.324782,9178.553681,-76456.330700
26654.130937,13767.830521,7550.100608,-76149.892501
26654.133435,10955.047942,7698.141797,-74924.139704
26654.135933,296.082377,2220.617826,-74004.825107
26654.138431,-1924.535449,4885.359217,-74158.044206
26654.140929,-592.164754,8734.430116,-75383.797003
26654.143427,3849.070898,8142.265362,-76915.987999
26654.145925,9918.759623,9178.553681,-76303.111601
26654.148423,19393.395680,5477.523971,-74770.920605
26654.150920,16876.695478,4441.235652,-74004.825107
26654.153418,-7698.141797,2960.823768,-73085.510509
26654.155916,-296.082377,3849.070898,-75537.016103
26654.158414,2960.823768,12583.501014,-76303.111601
26654.160912,-3849.070898,8438.347739,-77222.426198
26654.163410,21910.095883,3552.988522,-76303.111601
26654.165908,-20133.601622,4293.194464,-72319.415011
26654.168406,592.164754,7105.977043,-74617.701505
26654.170904,3997.112087,3997.112087,-75537.016103
26654.173443,-20281.642811,12435.459826,-74311.263306
26654.175982,8734.430116,3256.906145,-76303.111601
26654.178521,19689.478057,7550.100608,-76915.987999
26654.181060,-14063.912898,5477.523971,-73085.510509
26654.183599,-4737.318029,4293.194464,-75996.673402
26654.186138,-4885.359217,5921.647536,-74464.482406
26654.188677,-23390.507767,9622.677246,-74924.139704
26654.191216,1776.494261,6809.894666,-76762.768900
26654.193755,12731.542202,7994.224174,-76915.987999
26654.196294,3701.029710,7105.977043,-75077.358804
26654.198832,-296.082377,1776.494261,-72779.072310
26654.201371,-25907.207970,6069.688724,-74004.825107
26654.203910,8734.430116,6809.894666,-76609.549800
26654.206449,-4737.318029,9178.553681,-75383.797003
26654.208988,7402.059420,5477.523971,-76149.892501
26654.211527,15248.242405,6661.853478,-75383.797003
26654.214066,-6513.812290,4885.359217,-74770.920605
26654.216605,-3108.864956,3997.112087,-75383.797003
26654.219144,-16432.571912,9474.636058,-73545.167808
26654.221683,8142.265362,7698.141797,-77069.207099
26654.224222,5181.441594,7550.100608,-75996.673402
26654.226761,1924.535449,7254.018232,-75077.358804
26654.229300,-6365.771101,2516.700203,-75843.454302
26654.231839,-13027.624579,5181.441594,-74924.139704
26654.234378,-3701.029710,7105.977043,-76456.330700
26654.236916,14063.912898,11251.130318,-75843.454302
26654.239455,6217.729913,4293.194464,-75537.016103
26654.241994,-17320.819043,5033.400406,-72779.072310
26654.244533,-10214.842000,4293.194464,-74770.920605
26654.247072,2368.659014,6661.853478,-75537.016103
26654.249611,1628.453072,14211.954086,-74464.482406
26654.252150,-7994.224174,5477.523971,-75230.577904
26654.254720,30644.525999,2664.741391,-74617.701505
26654.257289,6661.853478,2220.617826,-72166.195912
26654.259859,888.247130,2812.782580,-78601.398095
26654.262429,5033.400406,7254.018232,-75537.016103
26654.264998,-6957.935855,8290.306550,-74464.482406
26654.267568,25018.960840,6365.771101,-76149.892501
26654.270138,1628.453072,8438.347739,-75690.235202
26654.272707,592.164754,2960.823768,-74770.920605
26654.275277,2960.823768,2664.741391,-73851.606007
26654.277847,-9622.677246,7550.100608,-74311.263306
26654.280416,13323.706956,4441.235652,-77528.864398
26654.282986,8290.306550,10510.924376,-76456.330700
26654.285555,21317.931130,6809.894666,-76456.330700
26654.288125,-9326.594869,3404.947333,-74924.139704
26654.290695,12583.501014,4589.276840,-73851.606007
26654.293264,-4737.318029,9622.677246,-73391.948708
26654.295834,-2072.576638,6217.729913,-76609.549800
26654.298404,15544.324782,8882.471304,-76149.892501
26654.300973,8438.347739,7698.141797,-76303.111601
26654.303543,1628.453072,3404.947333,-75383.797003
26654.306113,8290.306550,5181.441594,-74311.263306
26654.308682,-8142.265362,7105.977043,-74311.263306
26654.311252,3997.112087,7254.018232,-76149.892501
26654.313822,9622.677246,7994.224174,-75996.673402
26654.316391,22058.137072,9030.512492,-76149.892501
26654.318961,12583.501014,3404.947333,-75077.358804
26654.321531,-7846.182985,2664.741391,-73085.510509
26654.324100,7994.224174,6217.729913,-74770.920605
26654.326670,6365.771101,12139.377449,-75077.358804
26654.329239,-3701.029710,8734.430116,-76456.330700
26654.331809,3849.070898,4885.359217,-75077.358804
26654.334379,-6661.853478,3552.988522,-74617.701505
26654.336948,-1628.453072,6809.894666,-74617.701505
26654.339518,-5477.523971,5625.565159,-74617.701505
26654.342088,-7994.224174,7105.977043,-74464.482406
26654.344657,15544.324782,6809.894666,-75843.454302
26654.347227,6217.729913,7698.141797,-75843.454302
26654.349797,-7402.059420,7105.977043,-75537.016103
26654.352366,-8438.347739,3849.070898,-75383.797003
26654.354936,-11843.295072,5033.400406,-74158.044206
26654.357460,-7846.182985,5329.482782,-74617.701505
26654.359983,6069.688724,9770.718434,-75537.016103
26654.362507,20873.807564,7254.018232,-77069.207099
26654.365030,-3701.029710,6957.935855,-74004.825107
26654.367554,-9474.636058,2072.576638,-74770.920605
26654.370077,-11547.212695,7254.018232,-73698.386908
26654.372601,-3552.988522,3701.029710,-77069.207099
26654.375125,-592.164754,13323.706956,-75843.454302
26654.377648,1036.288319,4441.235652,-75843.454302
26654.380172,2516.700203,3701.029710,-76303.111601
26654.382695,6661.853478,7105.977043,-75383.797003
26654.385219,-17764.942608,5329.482782,-74617.701505
26654.387743,3701.029710,4885.359217,-75537.016103
26654.390266,-7994.224174,9918.759623,-74617.701505
26654.392790,10510.924376,5329.482782,-76915.987999
26654.395313,-9918.759623,4145.153275,-74924.139704
26654.397837,-1776.494261,7402.059420,-73698.386908
26654.400360,592.164754,5773.606348,-73851.606007
26654.402884,444.123565,8438.347739,-74924.139704
26654.405408,9770.718434,5921.647536,-75383.797003
26654.407931,-17172.777854,7402.059420,-74770.920605
26654.410455,-4441.235652,5773.606348,-75383.797003
26654.412978,5625.565159,6069.688724,-75843.454302
26654.415502,18209.066173,13619.789333,-74004.825107
26654.418026,6365.771101,3108.864956,-76915.987999
26654.420549,20429.683999,6069.688724,-74004.825107
26654.423073,2960.823768,6069.688724,-75230.577904
26654.425596,1036.288319,6365.771101,-77528.864398
26654.428120,-3701.029710,8438.347739,-75077.358804
26654.430643,11843.295072,5181.441594,-74617.701505
26654.433167,21614.013506,7402.059420,-74924.139704
26654.435691,-5477.523971,7105.977043,-74158.044206
26654.438214,7846.182985,3552.988522,-75230.577904
26654.440738,-4589.276840,7254.018232,-75690.235202
26654.443261,-5773.606348,6365.771101,-77528.864398
26654.445785,20429.683999,7550.100608,-77069.207099
26654.448309,-296.082377,10807.006753,-74770.920605
26654.450832,14063.912898,3552.988522,-75690.235202
26654.453356,6069.688724,5921.647536,-74311.263306
26654.455879,592.164754,9326.594869,-74158.044206
26654.458435,-8882.471304,6513.812290,-74617.701505
26654.460991,9622.677246,8142.265362,-75077.358804
26654.463547,6957.935855,5773.606348,-75230.577904
26654.466103,9474.636058,5181.441594,-75690.235202
26654.468659,3849.070898,5033.400406,-75230.577904
26654.471215,-888.247130,3701.029710,-75996.673402
26654.473771,1628.453072,9622.677246,-74924.139704
26654.476326,8586.388927,5625.565159,-75996.673402
26654.478882,20577.725188,7994.224174,-75537.016103
26654.481438,10362.883188,6513.812290,-74158.044206
26654.483994,-17468.860231,1480.411884,-74004.825107
26654.486550,11399.171507,8142.265362,-74158.044206
26654.489106,3552.988522,11547.212695,-75077.358804
26654.491662,-2516.700203,8142.265362,-76456.330700
26654.494218,1628.453072,1628.453072,-75690.235202
26654.496774,-3997.112087,7105.977043,-75537.016103
26654.499329,-6957.935855,6069.688724,-75537.016103
26654.501885,-11251.130318,7254.018232,-75537.016103
26654.504441,9030.512492,3108.864956,-74770.920605
26654.506997,10955.047942,7698.141797,-74158.044206
26654.509553,2220.617826,5921.647536,-76303.111601
26654.512109,-1776.494261,9326.594869,-75843.454302
26654.514665,-17912.983796,5921.647536,-76149.892501
26654.517221,-9178.553681,5625.565159,-74311.263306
26654.519777,-4589.276840,6661.853478,-73391.948708
26654.522332,18505.148550,9030.512492,-76149.892501
26654.524888,9326.594869,7994.224174,-76149.892501
26654.527444,888.247130,5921.647536,-74617.701505
26654.530000,-21762.054695,5181.441594,-74464.482406
26654.532556,2812.782580,3997.112087,-75843.454302
26654.535112,-15248.242405,7105.977043,-75996.673402
26654.537668,18949.272115,6513.812290,-75843.454302
26654.540224,12139.377449,4441.235652,-75537.016103
26654.542780,-9474.636058,5625.565159,-74617.701505
26654.545335,-3108.864956,5329.482782,-73851.606007
26654.547891,-21465.972318,7698.141797,-73545.167808
26654.550447,5773.606348,6661.853478,-75230.577904
26654.553003,-3404.947333,10214.842000,-74770.920605
26654.555559,4885.359217,4293.194464,-76609.549800
26654.558115,-2960.823768,8142.265362,-73851.606007
26654.560695,6661.853478,4589.276840,-75230.577904
26654.563276,-1924.535449,8734.430116,-75077.358804
26654.565856,5773.606348,4145.153275,-75383.797003
26654.568436,-16284.530724,8586.388927,-75843.454302
26654.571017,-2960.823768,6957.935855,-76762.768900
26654.573597,7105.977043,6661.853478,-75537.016103
26654.576177,20725.766376,10658.965565,-74770.920605
26654.578758,8734.430116,4737.318029,-74924.139704
26654.581338,-5033.400406,4737.318029,-72012.976812
26654.583918,7254.018232,9030.512492,-74770.920605
26654.586499,-7550.100608,8142.265362,-77222.426198
26654.589079,6069.688724,8438.347739,-75537.016103
26654.591659,16728.654289,6661.853478,-74770.920605
26654.594240,16580.613101,5477.523971,-75537.016103
26654.596820,-7550.100608,5625.565159,-74464.482406
26654.599400,5773.606348,1036.288319,-75383.797003
26654.601981,-11399.171507,10658.965565,-75077.358804
26654.604561,1924.535449,7254.018232,-76149.892501
26654.607141,12287.418637,5921.647536,-76303.111601
26654.609722,22502.260637,10214.842000,-74158.044206
26654.612302,-9918.759623,5329.482782,-74770.920605
26654.614882,25463.084405,4293.194464,-74924.139704
26654.617463,-12879.583391,6957.935855,-74924.139704
26654.620043,4441.235652,7105.977043,-78294.959896
26654.622623,13323.706956,7994.224174,-75383.797003
26654.625204,6809.894666,5921.647536,-76149.892501
26654.627784,11251.130318,5329.482782,-75843.454302
26654.630365,-444.123565,2220.617826,-75077.358804
26654.632945,1628.453072,7994.224174,-74158.044206
26654.635525,2812.782580,5921.647536,-75077.358804
26654.638106,17764.942608,9622.677246,-75537.016103
26654.640686,15100.201217,7254.018232,-74770.920605
26654.643266,-7994.224174,3256.906145,-73851.606007
26654.645847,3108.864956,6661.853478,-74924.139704
26654.648427,9918.759623,6069.688724,-75077.358804
26654.651007,-444.123565,9178.553681,-76303.111601
26654.653588,3108.864956,3552.988522,-76149.892501
26654.656168,-444.123565,8142.265362,-74617.701505
26654.658748,-9918.759623,7254.018232,-76149.892501
26654.661329,-10362.883188,4737.318029,-75843.454302
26654.663925,11547.212695,4589.276840,-74004.825107
26654.666522,6957.935855,8438.347739,-74004.825107
26654.669119,4293.194464,6661.853478,-75537.016103
26654.671716,-3256.906145,8438.347739,-74311.263306
26654.674312,-15248.242405,6513.812290,-74924.139704
26654.676909,-15248.242405,4441.235652,-75077.358804
26654.679506,4441.235652,4441.235652,-74311.263306
26654.682103,-4293.194464,8882.471304,-73391.948708
26654.684699,13619.789333,7698.141797,-76149.892501
26654.687296,-10362.883188,5625.565159,-75996.673402
26654.689893,-2368.659014,3997.112087,-74617.701505
26654.692490,-12287.418637,6365.771101,-74311.263306
26654.695086,-6069.688724,5181.441594,-75383.797003
26654.697683,13323.706956,8734.430116,-74158.044206
26654.700280,-6661.853478,9030.512492,-73391.948708
26654.702877,3108.864956,6069.688724,-75537.016103
26654.705473,-12879.583391,5625.565159,-75383.797003
26654.708070,-9770.718434,5181.441594,-74311.263306
26654.710667,1924.535449,7105.977043,-75077.358804
26654.713264,-4145.153275,5773.606348,-76303.111601
26654.715860,4885.359217,7402.059420,-74464.482406
26654.718457,1628.453072,5773.606348,-74924.139704
26654.721054,444.123565,5773.606348,-74158.044206
26654.723651,1776.494261,4145.153275,-75383.797003
26654.726247,-13323.706956,8438.347739,-73545.167808
26654.728844,-11547.212695,6809.894666,-76609.549800
26654.731441,5033.400406,6513.812290,-75843.454302
26654.734037,27091.537477,13471.748144,-74158.044206
26654.736634,2960.823768,3108.864956,-77069.207099
26654.739231,22058.137072,3404.947333,-74464.482406
26654.741828,4293.194464,2664.741391,-75843.454302
26654.744424,1184.329507,8142.265362,-77222.426198
26654.747021,6513.812290,7994.224174,-75996.673402
26654.749618,6513.812290,5773.606348,-75537.016103
26654.752215,26943.496289,6661.853478,-75230.577904
26654.754811,-3849.070898,7105.977043,-72472.634111
26654.757408,10362.883188,3108.864956,-75383.797003
26654.760005,0.000000,8586.388927,-73851.606007
26654.762602,-9474.636058,7846.182985,-76149.892501
26654.765198,19837.519246,4737.318029,-77069.207099
26654.767807,-2664.741391,7402.059420,-74004.825107
26654.770416,23094.425390,4293.194464,-75537.016103
26654.773024,-19541.436869,-444.123565,-75690.235202
26654.775633,17764.942608,6661.853478,-74770.920605
26654.778241,-14211.954086,11103.089130,-73391.948708
26654.780850,7254.018232,7402.059420,-76762.768900
26654.783458,15692.365970,11991.336260,-75537.016103
26654.786067,6809.894666,4441.235652,-75996.673402
26654.788676,10066.800811,3256.906145,-74617.701505
26654.791284,-444.123565,6957.935855,-73545.167808
26654.793893,6957.935855,7402.059420,-76456.330700
26654.796501,12287.418637,5921.647536,-75537.016103
26654.799110,14952.160028,8882.471304,-74158.044206
26654.801719,-10066.800811,2072.576638,-74464.482406
26654.804327,6365.771101,5921.647536,-74617.701505
26654.806936,10658.965565,6217.729913,-74617.701505
26654.809544,-1332.370696,9030.512492,-75230.577904
26654.812153,-2072.576638,3849.070898,-75996.673402
26654.814761,-3108.864956,11991.336260,-74617.701505
26654.817370,-12435.459826,5921.647536,-75843.454302
26654.819979,-1628.453072,3552.988522,-75230.577904
26654.822587,12879.583391,4293.194464,-73851.606007
26654.825196,296.082377,7105.977043,-74770.920605
26654.827804,5773.606348,5033.400406,-76303.111601
26654.830413,-6661.853478,10362.883188,-74617.701505
26654.833021,-21317.931130,6513.812290,-76303.111601
26654.835630,4293.194464,3849.070898,-75077.358804
26654.838239,2664.741391,7698.141797,-72472.634111
26654.840847,8734.430116,6217.729913,-74770.920605
26654.843456,14656.077652,7402.059420,-76303.111601
26654.846064,-19245.354492,7698.141797,-74770.920605
26654.848673,-1036.288319,2812.782580,-76149.892501
26654.851282,-25463.084405,5921.647536,-73851.606007
26654.853890,15988.448347,6957.935855,-77069.207099
26654.856499,3108.864956,7698.141797,-74617.701505
26654.859107,-148.041188,6217.729913,-75230.577904
26654.861716,-1628.453072,8142.265362,-74464.482406
26654.864324,-18209.066173,7698.141797,-75996.673402
26654.866933,-740.205942,4885.359217,-75537.016103
26654.869542,-11251.130318,5921.647536,-75077.358804
26654.872158,12583.501014,7994.224174,-75537.016103
26654.874775,5329.482782,6661.853478,-74924.139704
26654.877391,3404.947333,7105.977043,-74464.482406
26654.880008,2516.700203,3256.906145,-75537.016103
26654.882624,-18949.272115,7550.100608,-75230.577904
26654.885241,-10362.883188,6661.853478,-76915.987999
26654.887858,13619.789333,6513.812290,-75996.673402
26654.890474,17764.942608,9030.512492,-74004.825107
26654.893091,18209.066173,5773.606348,-72779.072310
26654.895707,7254.018232,6661.853478,-72625.853210
26654.898324,-16580.613101,5477.523971,-74311.263306
26654.900940,-1924.535449,7402.059420,-77222.426198
26654.903557,740.205942,9622.677246,-74617.701505
26654.906173,21169.889941,5181.441594,-75996.673402
26654.908790,12139.377449,3997.112087,-75843.454302
26654.911407,-1036.288319,4441.235652,-72779.072310
26654.914023,8734.430116,4441.235652,-75690.235202
26654.916640,-18653.189738,9474.636058,-76609.549800
26654.919256,-6365.771101,10214.842000,-75843.454302
26654.921873,26795.455100,7402.059420,-76149.892501
26654.924489,2812.782580,6957.935855,-74617.701505
26654.927106,5181.441594,148.041188,-74617.701505
26654.929722,14359.995275,3849.070898,-73238.729609
26654.932339,-8882.471304,10807.006753,-74924.139704
26654.934956,-1036.288319,6661.853478,-77069.207099
26654.937572,15100.201217,8882.471304,-73545.167808
26654.940189,11843.295072,9030.512492,-74004.825107
26654.942805,9326.594869,1628.453072,-76303.111601
26654.945422,-4145.153275,2960.823768,-74770.920605
26654.948038,14656.077652,7402.059420,-74004.825107
26654.950655,-1776.494261,7994.224174,-76762.768900
26654.953271,11547.212695,6957.935855,-76915.987999
26654.955888,5033.400406,6809.894666,-74464.482406
26654.958505,-1332.370696,7846.182985,-74770.920605
26654.961121,10955.047942,2960.823768,-75996.673402
26654.963738,7846.182985,7402.059420,-73698.386908
26654.966354,-21465.972318,2812.782580,-74770.920605
26654.968971,6661.853478,11547.212695,-75230.577904
26654.971587,-17320.819043,9030.512492,-76915.987999
26654.974204,-592.164754,6217.729913,-75690.235202
26654.976770,16284.530724,2368.659014,-75077.358804
26654.979337,2220.617826,6513.812290,-73238.729609
26654.981903,-2072.576638,3108.864956,-74924.139704
26654.984470,3701.029710,9030.512492,-74464.482406
26654.987036,-23686.590144,8290.306550,-77375.645298
26654.989603,-13323.706956,6661.853478,-75537.016103
26654.992169,8438.347739,6661.853478,-73085.510509
26654.994735,5181.441594,6217.729913,-74311.263306
26654.997302,9178.553681,1776.494261,-78141.740796
26654.999868,-2220.617826,8290.306550,-73391.948708
26655.002435,-9770.718434,5181.441594,-75996.673402
26655.005001,0.000000,9178.553681,-74924.139704
26655.007568,-15544.324782,6957.935855,-73545.167808
26655.010134,21021.848753,4885.359217,-75077.358804
26655.012701,-296.082377,6809.894666,-75077.358804
26655.015267,-148.041188,4589.276840,-74770.920605
26655.017833,-13767.830521,6957.935855,-76149.892501
26655.020400,-14063.912898,6513.812290,-74617.701505
26655.022966,-4441.235652,7698.141797,-75537.016103
26655.025533,7254.018232,7550.100608,-76303.111601
26655.028099,18061.024985,8586.388927,-74617.701505
26655.030666,-740.205942,4737.318029,-73391.948708
26655.033232,-4441.235652,5033.400406,-76149.892501
26655.035798,-16728.654289,7254.018232,-74617.701505
26655.038365,-19541.436869,8734.430116,-77069.207099
26655.040931,32272.979071,6513.812290,-76303.111601
26655.043498,-19985.560434,4589.276840,-74158.044206
26655.046064,40711.326810,3849.070898,-72779.072310
26655.048631,-8882.471304,3849.070898,-72625.853210
26655.051197,-10362.883188,8142.265362,-73545.167808
26655.053764,3701.029710,7550.100608,-76149.892501
26655.056330,-5033.400406,12139.377449,-76456.330700
26655.058896,33901.432144,7698.141797,-76609.549800
26655.061463,5921.647536,2368.659014,-74617.701505
26655.064029,5033.400406,5921.647536,-72779.072310
26655.066596,148.041188,1776.494261,-77069.207099
26655.069162,-7698.141797,6809.894666,-77069.207099
26655.071729,-10807.006753,9622.677246,-74004.825107
26655.074295,26499.372724,10658.965565,-77069.207099
26655.076861,-444.123565,4293.194464,-76149.892501
26655.079444,9326.594869,2516.700203,-73851.606007
26655.082026,6661.853478,5773.606348,-71706.538613
26655.084607,-12139.377449,7994.224174,-75077.358804
26655.087189,888.247130,9178.553681,-76762.768900
26655.089771,12139.377449,6661.853478,-75537.016103
26655.092352,21465.972318,7105.977043,-75077.358804
26655.094934,-1332.370696,2960.823768,-75230.577904
26655.097516,13471.748144,1184.329507,-73391.948708
26655.100097,10658.965565,7105.977043,-73851.606007
26655.102679,-5033.400406,10214.842000,-76609.549800
26655.105261,5033.400406,5033.400406,-77682.083497
26655.107842,4293.194464,11843.295072,-73851.606007
26655.110424,6661.853478,4885.359217,-74924.139704
26655.113006,22946.384202,5181.441594,-75537.016103
26655.115588,-35085.761651,3108.864956,-72779.072310
26655.118169,-2664.741391,9770.718434,-75230.577904
26655.120751,1184.329507,10066.800811,-76609.549800
26655.123333,-30052.361245,10362.883188,-75996.673402
26655.125914,18949.272115,2072.576638,-76609.549800
26655.128496,14804.118840,6957.935855,-73391.948708
26655.131078,-1036.288319,3404.947333,-72779.072310
26655.133659,-6513.812290,6661.853478,-75230.577904
26655.136241,-16728.654289,9326.594869,-76762.768900
26655.138823,-18505.148550,8882.471304,-75843.454302
26655.141404,5625.565159,5033.400406,-75996.673402
26655.143986,9622.677246,7105.977043,-75230.577904
26655.146568,4145.153275,1776.494261,-75690.235202
26655.149149,-888.247130,5329.482782,-74464.482406
26655.151731,-4589.276840,6957.935855,-75690.235202
26655.154313,-22058.137072,9030.512492,-76915.987999
26655.156895,6957.935855,7402.059420,-76149.892501
26655.159476,-1924.535449,7698.141797,-73545.167808
26655.162058,10955.047942,4441.235652,-74004.825107
26655.164640,-7994.224174,7402.059420,-74311.263306
26655.167221,-8882.471304,1332.370696,-76609.549800
26655.169803,-14952.160028,7994.224174,-75690.235202
26655.172385,-3997.112087,8734.430116,-76456.330700
26655.174966,13915.871710,8734.430116,-77528.864398
26655.177548,4441.235652,4293.194464,-73545.167808
26655.180130,8882.471304,148.041188,-73391.948708
26655.182723,-16432.571912,5033.400406,-75383.797003
26655.185316,-23538.548956,6513.812290,-77835.302597
26655.187909,13471.748144,9326.594869,-75537.016103
26655.190502,34197.514520,22058.137072,-71859.757712
26655.193095,19245.354492,6513.812290,-76303.111601
26655.195688,44560.397708,9030.512492,-70787.224015
26655.198281,-24426.796086,2220.617826,-71093.662214
26655.200874,-5921.647536,4145.153275,-79061.055394
26655.203467,29460.196492,14063.912898,-74004.825107
26655.206060,-18505.148550,6217.729913,-74924.139704
26655.208653,29460.196492,740.205942,-78754.617194
26655.211246,21465.972318,7550.100608,-71553.319513
26655.213840,-18357.107362,2960.823768,-72012.976812
26655.216433,6365.771101,4885.359217,-76303.111601
26655.219026,-15100.201217,14063.912898,-73391.948708
26655.221619,25907.207970,11399.171507,-74924.139704
26655.224212,12139.377449,8882.471304,-75690.235202
26655.226805,-2812.782580,1776.494261,-74924.139704
26655.229398,5477.523971,3404.947333,-73698.386908
26655.231991,6069.688724,3404.947333,-74158.044206
26655.234584,-9326.594869,9474.636058,-74770.920605
26655.237177,3404.947333,7698.141797,-74770.920605
26655.239770,26943.496289,8586.388927,-74770.920605
26655.242363,6513.812290,6217.729913,-75843.454302
26655.244956,13027.624579,1480.411884,-74464.482406
26655.247549,2812.782580,2516.700203,-72932.291410
26655.250142,2220.617826,7105.977043,-74924.139704
26655.252735,-4293.194464,8882.471304,-77375.645298
26655.255329,-296.082377,11103.089130,-76915.987999
26655.257922,16432.571912,9030.512492,-75077.358804
26655.260515,7254.018232,1036.288319,-74311.263306
26655.263108,-20133.601622,1184.329507,-74924.139704
26655.265701,3849.070898,6513.812290,-74617.701505
26655.268294,-9770.718434,11991.336260,-74924.139704
26655.270887,-1924.535449,10955.047942,-74617.701505
26655.273480,12731.542202,5329.482782,-76456.330700
26655.276073,18209.066173,5625.565159,-74770.920605
26655.278666,-296.082377,3701.029710,-72932.291410
26655.281259,-10066.800811,5181.441594,-75996.673402
26655.283852,-16728.654289,9622.677246,-75996.673402
26655.286454,-14359.995275,8586.388927,-75230.577904
26655.289056,-5329.482782,8290.306550,-75690.235202
26655.291657,7698.141797,5477.523971,-76762.768900
26655.294259,12879.583391,2516.700203,-72779.072310
26655.296861,2960.823768,4589.276840,-73238.729609
26655.299462,-21614.013506,7105.977043,-75537.016103
26655.302064,2812.782580,8290.306550,-76762.768900
26655.304666,-3552.988522,7846.182985,-75230.577904
26655.307268,5033.400406,6217.729913,-73851.606007
26655.309869,592.164754,3849.070898,-74004.825107
26655.312471,-2516.700203,1776.494261,-76303.111601
26655.315073,-11251.130318,6957.935855,-73698.386908
26655.317674,-8290.306550,8438.347739,-76149.892501
26655.320276,8882.471304,9770.718434,-77222.426198
26655.322878,11103.089130,8438.347739,-76303.111601
26655.325479,4737.318029,2664.741391,-74464.482406
26655.328081,-24574.837274,2516.700203,-74311.263306
26655.330683,-3997.112087,5181.441594,-75843.454302
26655.333285,5181.441594,8586.388927,-76609.549800
26655.335886,11991.336260,18949.272115,-73085.510509
26655.338488,21169.889941,5477.523971,-75537.016103
26655.341090,29608.237680,9178.553681,-69714.690318
26655.343691,-19393.395680,2368.659014,-71093.662214
26655.346293,-5625.565159,2072.576638,-75537.016103
26655.348895,18505.148550,9770.718434,-75383.797003
26655.351497,-23242.466579,9474.636058,-74617.701505
26655.354098,35233.802839,5033.400406,-78601.398095
26655.356700,7402.059420,4885.359217,-73851.606007
26655.359302,-9178.553681,2220.617826,-71553.319513
26655.361903,19837.519246,148.041188,-75690.235202
26655.364505,-23686.590144,9770.718434,-75077.358804
26655.367107,22946.384202,12139.377449,-75230.577904
26655.369715,14804.118840,11251.130318,-75537.016103
26655.372323,2516.700203,4885.359217,-75383.797003
26655.374931,7105.977043,444.123565,-74004.825107
26655.377539,-4293.194464,6069.688724,-73545.167808
26655.380147,-1924.535449,6661.853478,-75537.016103
26655.382755,10214.842000,10214.842000,-76149.892501
26655.385363,9030.512492,8142.265362,-75537.016103
26655.387971,19245.354492,8586.388927,-74464.482406
26655.390579,12435.459826,740.205942,-75537.016103
26655.393187,148.041188,4293.194464,-72932.291410
26655.395795,-2516.700203,2516.700203,-74617.701505
26655.398403,4589.276840,13471.748144,-76609.549800
26655.401011,-2072.576638,9622.677246,-77069.207099
26655.403619,32421.020260,6513.812290,-76456.330700
26655.406228,-23982.672521,2368.659014,-72625.853210
26655.408836,-4145.153275,3552.988522,-76762.768900
26655.411444,8734.430116,2368.659014,-76762.768900
26655.414052,-10214.842000,11843.295072,-75996.673402
26655.416660,-4293.194464,6069.688724,-77988.521696
26655.419268,15100.201217,4145.153275,-75690.235202
26655.421876,5033.400406,6217.729913,-72166.195912
26655.424484,-20873.807564,296.082377,-76609.549800
26655.427092,4589.276840,4145.153275,-77069.207099
26655.429700,-13915.871710,10362.883188,-74158.044206
26655.432308,-2072.576638,9178.553681,-75230.577904
26655.434916,9622.677246,9622.677246,-76303.111601
26655.437524,4589.276840,5329.482782,-74924.139704
26655.440132,592.164754,3404.947333,-73238.729609
26655.442740,-17024.736666,4145.153275,-74311.263306
26655.445348,-2516.700203,7698.141797,-75230.577904
26655.447956,-17172.777854,11695.253884,-74617.701505
26655.450564,6217.729913,7846.182985,-75843.454302
26655.453172,3701.029710,5921.647536,-75077.358804
26655.455781,3997.112087,3701.029710,-75077.358804
26655.458389,-13471.748144,3997.112087,-74924.139704
26655.460997,-11843.295072,5921.647536,-75230.577904
26655.463605,7994.224174,9770.718434,-75077.358804
26655.466213,5625.565159,9178.553681,-75996.673402
26655.468821,6217.729913,3701.029710,-75383.797003
26655.471429,-17468.860231,1480.411884,-74004.825107
26655.474040,-10214.842000,6661.853478,-74311.263306
26655.476651,10510.924376,5329.482782,-76456.330700
26655.479263,11103.089130,19097.313304,-75537.016103
26655.481874,18801.230927,6513.812290,-74311.263306
26655.484486,24278.754898,8142.265362,-71093.662214
26655.487097,-16876.695478,3108.864956,-70634.004916
26655.489708,-3997.112087,3997.112087,-76303.111601
26655.492320,15396.283594,8586.388927,-75690.235202
26655.494931,-18801.230927,7550.100608,-75537.016103
26655.497542,33753.390955,7105.977043,-77069.207099
26655.500154,8438.347739,4885.359217,-74311.263306
26655.502765,-10066.800811,1776.494261,-73851.606007
26655.505376,26647.413912,2516.700203,-75077.358804
26655.507988,-22206.178260,7994.224174,-75230.577904
26655.510599,12435.459826,10807.006753,-76456.330700
26655.513210,16876.695478,8142.265362,-77375.645298
26655.515822,-296.082377,10955.047942,-73851.606007
26655.518433,12435.459826,1332.370696,-75077.358804
26655.521044,2516.700203,3849.070898,-75077.358804
26655.523656,-3849.070898,7698.141797,-73851.606007
26655.526267,14804.118840,9622.677246,-76456.330700
26655.528878,10066.800811,9474.636058,-75996.673402
26655.531490,20577.725188,6661.853478,-76609.549800
26655.534101,6069.688724,4145.153275,-74004.825107
26655.536712,-7105.977043,1924.535449,-73545.167808
26655.539324,2368.659014,6217.729913,-74158.044206
26655.541935,1924.535449,9622.677246,-77069.207099
26655.544546,14656.077652,11547.212695,-76456.330700
26655.547158,7698.141797,1924.535449,-75383.797003
26655.549769,-30940.608376,2516.700203,-72932.291410
26655.552380,1480.411884,6513.812290,-74158.044206
26655.554992,-8882.471304,8142.265362,-75537.016103
26655.557603,-13471.748144,13471.748144,-73391.948708
26655.560214,10807.006753,4441.235652,-77222.426198
26655.562826,19985.560434,7698.141797,-75383.797003
26655.565437,-2368.659014,4293.194464,-73698.386908
26655.568048,-8290.306550,5181.441594,-75996.673402
26655.570660,-18949.272115,7105.977043,-75537.016103
26655.573271,-5477.523971,8290.306550,-75996.673402
26655.575882,-4589.276840,8290.306550,-77375.645298
26655.578448,9030.512492,5625.565159,-77835.302597
26655.581014,16432.571912,6957.935855,-74004.825107
26655.583580,-4441.235652,3108.864956,-74004.825107
26655.586146,-9326.594869,5329.482782,-75383.797003
26655.588711,-18505.148550,10807.006753,-74617.701505
26655.591277,444.123565,9474.636058,-76456.330700
26655.593843,6217.729913,7402.059420,-75537.016103
26655.596409,1184.329507,4293.194464,-75690.235202
26655.598975,-5181.441594,2960.823768,-74158.044206
26655.601540,-10214.842000,7254.018232,-74617.701505
26655.604106,296.082377,7550.100608,-76149.892501
26655.606672,2072.576638,9178.553681,-76915.987999
26655.609238,5921.647536,5625.565159,-75077.358804
26655.611804,-8734.430116,5181.441594,-74464.482406
26655.614369,-16432.571912,4441.235652,-74311.263306
26655.616935,18949.272115,4589.276840,-75230.577904
26655.619501,13915.871710,15396.283594,-74158.044206
26655.622067,10066.800811,5921.647536,-76456.330700
26655.624633,25759.166782,7105.977043,-72625.853210
26655.627198,-5773.606348,3552.988522,-74004.825107
26655.629764,740.205942,5033.400406,-76609.549800
26655.632330,4145.153275,10214.842000,-75077.358804
26655.634896,1924.535449,4737.318029,-75230.577904
26655.637462,31680.814318,7698.141797,-76609.549800
26655.640027,2812.782580,6069.688724,-74004.825107
26655.642593,-5773.606348,1628.453072,-74924.139704
26655.645159,14656.077652,4145.153275,-75077.358804
26655.647725,-10362.883188,7846.182985,-74617.701505
26655.650291,10807.006753,6513.812290,-76456.330700
26655.652856,6217.729913,6217.729913,-75996.673402
26655.655422,13027.624579,4737.318029,-76303.111601
26655.657988,7402.059420,5033.400406,-74770.920605
26655.660554,-2960.823768,4885.359217,-73851.606007
26655.663120,-2664.741391,8586.388927,-74770.920605
26655.665685,13619.789333,7698.141797,-75996.673402
26655.668251,12435.459826,11103.089130,-75230.577904
26655.670817,17024.736666,2812.782580,-76149.892501
26655.673383,-5773.606348,5625.565159,-73698.386908
26655.675949,-444.123565,1184.329507,-75690.235202
26655.678514,3404.947333,10658.965565,-75537.016103
26655.681046,296.082377,10362.883188,-75996.673402
26655.683577,25315.043216,7994.224174,-77528.864398
26655.686109,-11547.212695,3552.988522,-73545.167808
26655.688640,-14656.077652,2960.823768,-77528.864398
26655.691172,-1036.288319,4737.318029,-74617.701505
26655.693703,-17764.942608,10066.800811,-73545.167808
26655.696235,1332.370696,3701.029710,-77375.645298
26655.698766,15692.365970,6513.812290,-75537.016103
26655.701297,4885.359217,7402.059420,-73698.386908
26655.703829,-11103.089130,3849.070898,-76149.892501
26655.706360,-6661.853478,3701.029710,-76303.111601
26655.708892,-9178.553681,8142.265362,-75537.016103
26655.711423,-1184.329507,6661.853478,-77528.864398
26655.713955,-2516.700203,7698.141797,-75996.673402
26655.716486,22650.301825,6809.894666,-76303.111601
26655.719018,-4293.194464,5477.523971,-73851.606007
26655.721549,-6957.935855,4885.359217,-74004.825107
26655.724081,-14952.160028,8290.306550,-75996.673402
26655.726612,-7402.059420,9178.553681,-76762.768900
26655.729143,7254.018232,6809.894666,-77222.426198
26655.731675,592.164754,7105.977043,-75537.016103
26655.734206,2220.617826,3701.029710,-75690.235202
26655.736738,-9770.718434,5033.400406,-74464.482406
26655.739269,2664.741391,5921.647536,-73698.386908
26655.741801,-2960.823768,6957.935855,-75996.673402
26655.744332,3849.070898,8734.430116,-75230.577904
26655.746864,-11547.212695,5329.482782,-75690.235202
26655.749395,-9918.759623,5625.565159,-74617.701505
26655.751927,24574.837274,5033.400406,-74311.263306
26655.754458,-9770.718434,6217.729913,-75077.358804
26655.756990,23538.548956,6809.894666,-74004.825107
26655.759521,-1924.535449,6957.935855,-74464.482406
26655.762052,4293.194464,9030.512492,-74158.044206
26655.764584,-1184.329507,6365.771101,-75077.358804
26655.767115,8438.347739,9474.636058,-73391.948708
26655.769647,12731.542202,4145.153275,-74770.920605
26655.772178,19837.519246,8882.471304,-75230.577904
26655.774710,-7550.100608,5181.441594,-74770.920605
26655.777241,9474.636058,2220.617826,-76915.987999
26655.779773,-5921.647536,9326.594869,-74617.701505
26655.782323,1776.494261,7994.224174,-75996.673402
26655.784873,22206.178260,6217.729913,-75690.235202
26655.787422,296.082377,8734.430116,-74770.920605
26655.789972,11991.336260,2664.741391,-77222.426198
26655.792522,740.205942,5477.523971,-75230.577904
26655.795072,2368.659014,6217.729913,-73238.729609
26655.797622,2368.659014,8142.265362,-75537.016103
26655.800172,14804.118840,7550.100608,-75383.797003
26655.802722,15840.407159,8882.471304,-75996.673402
26655.805272,3404.947333,6069.688724,-75383.797003
26655.807822,-5033.400406,592.164754,-75537.016103
26655.810372,4885.359217,8586.388927,-74464.482406
26655.812922,-740.205942,8734.430116,-77375.645298
26655.815472,9770.718434,9770.718434,-75996.673402
26655.818022,13915.871710,3849.070898,-75383.797003
26655.820572,-33605.349767,3997.112087,-74004.825107
26655.823122,4885.359217,5181.441594,-76303.111601
26655.825672,-8882.471304,10214.842000,-74004.825107
26655.828222,-4885.359217,5477.523971,-76303.111601
26655.830771,18653.189738,7254.018232,-76609.549800
26655.833321,9918.759623,7105.977043,-74770.920605
26655.835871,-8734.430116,6217.729913,-74770.920605
26655.838421,-8438.347739,5033.400406,-76609.549800
26655.840971,-21317.931130,5625.565159,-75843.454302
26655.843521,888.247130,6069.688724,-76149.892501
26655.846071,-3849.070898,6365.771101,-76609.549800
26655.848621,15396.283594,6809.894666,-75843.454302
26655.851171,10955.047942,8586.388927,-74004.825107
26655.853721,-17320.819043,3404.947333,-73851.606007
26655.856271,-2220.617826,3552.988522,-75077.358804
26655.858821,-18061.024985,8586.388927,-74617.701505
26655.861371,10362.883188,8586.388927,-75383.797003
26655.863921,-12583.501014,6809.894666,-73851.606007
26655.866471,4145.153275,3108.864956,-76303.111601
26655.869021,-5181.441594,7105.977043,-74004.825107
26655.871571,1628.453072,4441.235652,-74311.263306
26655.874121,-7105.977043,8142.265362,-74004.825107
26655.876670,6365.771101,6661.853478,-75383.797003
26655.879220,-16580.613101,9326.594869,-76149.892501
26655.881770,-4293.194464,5625.565159,-76609.549800
26655.884335,18801.230927,5329.482782,-75230.577904
26655.886900,-12731.542202,3997.112087,-73698.386908
26655.889465,26795.455100,3256.906145,-73085.510509
26655.892030,-2664.741391,3849.070898,-73391.948708
26655.894595,5477.523971,9622.677246,-75383.797003
26655.897160,-2664.741391,7254.018232,-76149.892501
26655.899725,9474.636058,9030.512492,-73698.386908
26655.902290,16136.489536,4293.194464,-75077.358804
26655.904855,18653.189738,8438.347739,-74617.701505
26655.907420,-4293.194464,1628.453072,-75537.016103
26655.909985,10955.047942,4885.359217,-76303.111601
26655.912550,-1924.535449,8734.430116,-74770.920605
26655.915115,-6809.894666,7846.182985,-75077.358804
26655.917680,24722.878463,7994.224174,-75077.358804
26655.920245,2664.741391,6365.771101,-74464.482406
26655.922810,10807.006753,1628.453072,-77835.302597
26655.925375,5921.647536,5625.565159,-76762.768900
26655.927940,-11695.253884,6365.771101,-74770.920605
26655.930505,24426.796086,5921.647536,-76609.549800
26655.933070,4441.235652,9474.636058,-74004.825107
26655.935635,26203.290347,6661.853478,-75230.577904
26655.938200,-5773.606348,6661.853478,-73698.386908
26655.940765,-296.082377,2220.617826,-75996.673402
26655.943330,7698.141797,9178.553681,-74924.139704
26655.945895,-1332.370696,8734.430116,-77069.207099
26655.948460,17764.942608,5477.523971,-75996.673402
26655.951025,-18949.272115,4441.235652,-72472.634111
26655.953590,-148.041188,6217.729913,-75996.673402
26655.956155,-4145.153275,6513.812290,-75383.797003
26655.958720,-23094.425390,8734.430116,-74924.139704
26655.961285,13323.706956,4145.153275,-76456.330700
26655.963850,8586.388927,8142.265362,-75077.358804
26655.966415,444.123565,6809.894666,-74770.920605
26655.968979,-3849.070898,5181.441594,-75690.235202
26655.971544,-16432.571912,6365.771101,-76762.768900
26655.974109,-9030.512492,6513.812290,-75690.235202
26655.976674,-148.041188,7254.018232,-75383.797003
26655.979239,14211.954086,10658.965565,-75996.673402
26655.981804,-7698.141797,3256.906145,-76609.549800
26655.984369,12287.418637,6365.771101,-74311.263306
26655.986945,-19245.354492,8142.265362,-73085.510509
26655.989521,-10362.883188,4589.276840,-76915.987999
26655.992097,1924.535449,10510.924376,-75537.016103
26655.994673,-8734.430116,6957.935855,-76456.330700
26655.997249,17320.819043,5477.523971,-77069.207099
26655.999824,-15692.365970,2960.823768,-74924.139704
26656.002400,10510.924376,5329.482782,-74924.139704
26656.004976,-9178.553681,7846.182985,-73851.606007
26656.007552,3108.864956,4885.359217,-76609.549800
26656.010128,-12731.542202,9178.553681,-75996.673402
26656.012704,-9326.594869,4737.318029,-75996.673402
26656.015280,27535.661042,6513.812290,-75996.673402
26656.017855,-11695.253884,4145.153275,-74770.920605
26656.020431,23982.672521,5625.565159,-75383.797003
26656.023007,-6809.894666,5181.441594,-75077.358804
26656.025583,7105.977043,9622.677246,-74924.139704
26656.028159,-13323.706956,8438.347739,-76762.768900
26656.030735,15840.407159,8734.430116,-74617.701505
26656.033310,20725.766376,6069.688724,-74311.263306
26656.035886,8142.265362,6365.771101,-74464.482406
26656.038462,-2368.659014,3701.029710,-74311.263306
26656.041038,6365.771101,5477.523971,-76456.330700
26656.043614,1184.329507,9622.677246,-75996.673402
26656.046190,-7698.141797,7994.224174,-77222.426198
26656.048766,23834.631332,7846.182985,-76149.892501
26656.051341,9326.594869,5773.606348,-75537.016103
26656.053917,-1332.370696,2812.782580,-73545.167808
26656.056493,14656.077652,6513.812290,-73085.510509
26656.059069,-7698.141797,6069.688724,-74924.139704
26656.061645,12287.418637,8734.430116,-76609.549800
26656.064221,11695.253884,7994.224174,-74770.920605
26656.066796,23982.672521,8882.471304,-75383.797003
26656.069372,-6661.853478,3552.988522,-75690.235202
26656.071948,-1036.288319,4441.235652,-74924.139704
26656.074524,5625.565159,8142.265362,-74770.920605
26656.077100,-2220.617826,10214.842000,-76456.330700
26656.079676,12139.377449,2664.741391,-76762.768900
26656.082252,-16284.530724,8142.265362,-74464.482406
26656.084827,2220.617826,5921.647536,-77222.426198
26656.087403,-20577.725188,6365.771101,-76456.330700
26656.089987,2812.782580,5181.441594,-75077.358804
26656.092571,10066.800811,7550.100608,-75383.797003
26656.095156,-1332.370696,7698.141797,-74617.701505
26656.097741,8882.471304,5329.482782,-75690.235202
26656.100326,-18061.024985,7402.059420,-74464.482406
26656.102911,-23686.590144,5181.441594,-76609.549800
26656.105495,-7402.059420,5625.565159,-75537.016103
26656.108080,15100.201217,9326.594869,-73391.948708
26656.110665,-2368.659014,7994.224174,-74311.263306
26656.113250,4885.359217,3404.947333,-77835.302597
26656.115835,-5773.606348,3404.947333,-75383.797003
26656.118419,-11399.171507,4293.194464,-75537.016103
26656.121004,-740.205942,4885.359217,-77222.426198
26656.123589,-10807.006753,9918.759623,-74770.920605
26656.126174,2368.659014,6365.771101,-75383.797003
26656.128759,3701.029710,6069.688724,-75843.454302
26656.131343,740.205942,4885.359217,-74617.701505
26656.133928,-444.123565,5773.606348,-75077.358804
26656.136513,-7698.141797,4145.153275,-75996.673402
26656.139098,-7994.224174,8882.471304,-76456.330700
26656.141683,-13175.665768,6661.853478,-76303.111601
26656.144267,18949.272115,6069.688724,-75537.016103
26656.146852,-10510.924376,5921.647536,-74924.139704
26656.149437,26795.455100,2516.700203,-75077.358804
26656.152022,-5921.647536,5477.523971,-74158.044206
26656.154607,1332.370696,7698.141797,-74617.701505
26656.157191,-10658.965565,9918.759623,-76915.987999
26656.159776,12731.542202,8290.306550,-74311.263306
26656.162361,21910.095883,5329.482782,-76303.111601
26656.164946,7550.100608,5921.647536,-74617.701505
26656.167531,12583.501014,1776.494261,-74004.825107
26656.170115,5033.400406,3849.070898,-76609.549800
26656.172700,-14508.036463,10658.965565,-75230.577904
26656.175285,15248.242405,4885.359217,-76456.330700
26656.177870,3404.947333,11399.171507,-73851.606007
26656.180455,15840.407159,5033.400406,-74617.701505
26656.183039,5921.647536,1776.494261,-76762.768900
26656.185624,5329.482782,5329.482782,-75077.358804
26656.188209,7105.977043,7550.100608,-74311.263306
26656.190794,-7254.018232,10807.006753,-75077.358804
26656.193384,32272.979071,5181.441594,-75537.016103
26656.195975,8290.306550,11991.336260,-73085.510509
26656.198565,-4145.153275,-1480.411884,-75996.673402
26656.201156,2220.617826,7402.059420,-74158.044206
26656.203746,10807.006753,6365.771101,-74158.044206
26656.206337,2072.576638,10955.047942,-77069.207099
26656.208927,1036.288319,1036.288319,-77222.426198
26656.211518,1628.453072,8142.265362,-75230.577904
26656.214108,-18357.107362,7698.141797,-75383.797003
26656.216699,-12731.542202,5477.523971,-75230.577904
26656.219289,9178.553681,5181.441594,-75077.358804
26656.221880,9326.594869,6809.894666,-73698.386908
26656.224470,1480.411884,8142.265362,-75383.797003
26656.227061,4293.194464,5033.400406,-75537.016103
26656.229651,-21465.972318,8734.430116,-75843.454302
26656.232242,-16284.530724,6365.771101,-75077.358804
26656.234832,1480.411884,6069.688724,-74464.482406
26656.237423,1332.370696,7402.059420,-74924.139704
26656.240013,14508.036463,6809.894666,-76456.330700
26656.242604,-444.123565,6957.935855,-75690.235202
26656.245194,-12879.583391,3108.864956,-75077.358804
26656.247785,-9474.636058,6809.894666,-73545.167808
26656.250375,-14359.995275,4441.235652,-74617.701505
26656.252966,7846.182985,7994.224174,-76456.330700
26656.255556,-7254.018232,7846.182985,-74311.263306
26656.258147,15692.365970,5181.441594,-76149.892501
26656.260737,-10510.924376,5181.441594,-74311.263306
26656.263328,2664.741391,5921.647536,-74158.044206
26656.265918,-13323.706956,6217.729913,-74464.482406
26656.268509,-16136.489536,7994.224174,-75537.016103
26656.271099,148.041188,7254.018232,-77222.426198
26656.273690,35974.008781,14359.995275,-72779.072310
26656.276280,6661.853478,4293.194464,-74464.482406
26656.278871,21465.972318,7994.224174,-71246.881314
26656.281461,-9326.594869,-592.164754,-76149.892501
26656.284052,-888.247130,9918.759623,-75077.358804
26656.286642,-5329.482782,7846.182985,-75690.235202
26656.289233,12139.377449,7105.977043,-76609.549800
26656.291823,21465.972318,3552.988522,-75077.358804
26656.294414,8142.265362,4145.153275,-72166.195912
26656.297009,7846.182985,1480.411884,-74617.701505
26656.299603,-21465.972318,10510.924376,-74464.482406
26656.302198,10362.883188,9030.512492,-75690.235202
26656.304793,2072.576638,4145.153275,-76609.549800
26656.307388,22946.384202,11251.130318,-74311.263306
26656.309982,5329.482782,5033.400406,-73698.386908
26656.312577,-1628.453072,1184.329507,-75230.577904
26656.315172,18949.272115,9326.594869,-73545.167808
26656.317767,-13471.748144,7402.059420,-75383.797003
26656.320362,25759.166782,8734.430116,-77375.645298
26656.322956,18209.066173,9770.718434,-72932.291410
26656.325551,-10066.800811,3701.029710,-74464.482406
26656.328146,0.000000,2516.700203,-74924.139704
26656.330741,18653.189738,5625.565159,-74464.482406
26656.333335,-296.082377,8586.388927,-75383.797003
26656.335930,-7994.224174,2812.782580,-76609.549800
26656.338525,1184.329507,7994.224174,-75077.358804
26656.341120,-17468.860231,8290.306550,-75077.358804
26656.343715,-9030.512492,4589.276840,-75077.358804
26656.346309,6661.853478,5477.523971,-74158.044206
26656.348904,8142.265362,5033.400406,-74464.482406
26656.351499,-3552.988522,8882.471304,-75690.235202
26656.354094,10510.924376,5773.606348,-76303.111601
26656.356688,-21762.054695,8142.265362,-76456.330700
26656.359283,-4441.235652,4589.276840,-76149.892501
26656.361878,-11991.336260,7994.224174,-74464.482406
26656.364473,19985.560434,6217.729913,-76303.111601
26656.367068,2664.741391,9622.677246,-75383.797003
26656.369662,1332.370696,5329.482782,-76609.549800
26656.372257,-7994.224174,3997.112087,-75996.673402
26656.374852,-17172.777854,4885.359217,-74004.825107
26656.377447,-8290.306550,5625.565159,-76303.111601
26656.380041,-5033.400406,8586.388927,-75996.673402
26656.382636,9622.677246,6661.853478,-75077.358804
26656.385231,9030.512492,7402.059420,-75690.235202
26656.387826,-4441.235652,6661.853478,-74464.482406
26656.390421,-2516.700203,3997.112087,-74617.701505
26656.393015,-21910.095883,6365.771101,-75077.358804
26656.395610,-11103.089130,6365.771101,-77069.207099
26656.398205,11103.089130,6809.894666,-76149.892501
26656.400803,-6069.688724,4441.235652,-75843.454302
26656.403401,30792.567187,4441.235652,-74004.825107
26656.405999,-8586.388927,5773.606348,-73545.167808
26656.408597,-10362.883188,5625.565159,-74617.701505
26656.411195,-7994.224174,8438.347739,-77528.864398
26656.413793,11399.171507,9474.636058,-74158.044206
26656.416391,22354.219448,7402.059420,-75690.235202
26656.418989,10362.883188,4145.153275,-74924.139704
26656.421587,15988.448347,4293.194464,-72932.291410
26656.424185,-4885.359217,3701.029710,-75077.358804
26656.426782,2072.576638,8290.306550,-75077.358804
26656.429380,-4441.235652,8142.265362,-75690.235202
26656.431978,13619.789333,6957.935855,-75383.797003
26656.434576,22798.343014,7994.224174,-74464.482406
26656.437174,-2664.741391,4293.194464,-74004.825107
26656.439772,16580.613101,2368.659014,-75383.797003
26656.442370,-4589.276840,10510.924376,-71706.538613
26656.444968,888.247130,6957.935855,-76762.768900
26656.447566,18505.148550,9770.718434,-74617.701505
26656.450164,16432.571912,6809.894666,-74617.701505
26656.452762,-19393.395680,4293.194464,-74004.825107
26656.455360,18949.272115,1184.329507,-75690.235202
26656.457958,4441.235652,12879.583391,-72779.072310
26656.460556,-6069.688724,4145.153275,-75996.673402
26656.463154,2812.782580,9326.594869,-76762.768900
26656.465752,-5181.441594,10955.047942,-74617.701505
26656.468350,-19097.313304,6513.812290,-74464.482406
26656.470948,11695.253884,2516.700203,-76149.892501
26656.473546,6661.853478,6217.729913,-73545.167808
26656.476144,-4737.318029,6513.812290,-73698.386908
26656.478742,14952.160028,4885.359217,-77069.207099
26656.481340,-18949.272115,8586.388927,-75537.016103
26656.483938,-2072.576638,3256.906145,-76609.549800
26656.486536,-10658.965565,6957.935855,-74311.263306
26656.489134,9474.636058,7846.182985,-74004.825107
26656.491732,444.123565,6957.935855,-77375.645298
26656.494330,5181.441594,4441.235652,-77528.864398
26656.496928,-9178.553681,10510.924376,-74924.139704
26656.499526,-8586.388927,3108.864956,-76456.330700
26656.502123,-6069.688724,8438.347739,-75843.454302
26656.504724,-20577.725188,5033.400406,-74617.701505
26656.507324,23094.425390,7698.141797,-76609.549800
26656.509924,-6365.771101,5921.647536,-74004.825107
26656.512524,8734.430116,6365.771101,-77069.207099
26656.515124,-9178.553681,5773.606348,-74770.920605
26656.517724,-17172.777854,3849.070898,-74617.701505
26656.520324,-16432.571912,6957.935855,-76149.892501
26656.522924,19541.436869,6809.894666,-77222.426198
26656.525524,-10362.883188,7105.977043,-74770.920605
26656.528124,38786.791361,2664.741391,-73391.948708
26656.530724,-12287.418637,5773.606348,-73391.948708
26656.533324,-1628.453072,4885.359217,-74464.482406
26656.535924,-10362.883188,9622.677246,-75690.235202
26656.538524,13619.789333,9326.594869,-74464.482406
26656.541124,22354.219448,8438.347739,-75537.016103
26656.543724,6069.688724,5625.565159,-73391.948708
26656.546324,11843.295072,3701.029710,-72012.976812
26656.548924,4885.359217,1628.453072,-75690.235202
26656.551525,-15248.242405,7402.059420,-74924.139704
26656.554125,2812.782580,7105.977043,-75383.797003
26656.556725,11399.171507,7698.141797,-75690.235202
26656.559325,16284.530724,4145.153275,-79061.055394
26656.561925,1628.453072,3849.070898,-75843.454302
26656.564525,10807.006753,3108.864956,-74617.701505
26656.567125,2516.700203,10510.924376,-74158.044206
26656.569725,-2220.617826,6513.812290,-77835.302597
26656.572325,14063.912898,9326.594869,-75843.454302
26656.574925,7698.141797,4441.235652,-74311.263306
26656.577525,5181.441594,4441.235652,-75537.016103
26656.580125,12139.377449,6661.853478,-73545.167808
26656.582725,6957.935855,6513.812290,-75077.358804
26656.585325,-28719.990550,3404.947333,-76609.549800
26656.587927,9474.636058,8290.306550,-77375.645298
26656.590528,-19985.560434,10807.006753,-75843.454302
26656.593130,888.247130,4737.318029,-75537.016103
26656.595731,11399.171507,4293.194464,-75383.797003
26656.598333,1036.288319,4885.359217,-73851.606007
26656.600935,6661.853478,8882.471304,-75383.797003
26656.603536,-5773.606348,6365.771101,-75077.358804
26656.606138,-21465.972318,7550.100608,-75690.235202
26656.608739,5033.400406,4145.153275,-74311.263306
26656.611341,-12435.459826,7105.977043,-72779.072310
26656.613942,22206.178260,4589.276840,-74770.920605
26656.616544,-6217.729913,8290.306550,-74004.825107
26656.619145,-4589.276840,5773.606348,-76915.987999
26656.621747,-19985.560434,6513.812290,-75077.358804
26656.624348,-3404.947333,3701.029710,-75537.016103
26656.626950,-10510.924376,7846.182985,-74158.044206
26656.629552,9030.512492,3701.029710,-75383.797003
26656.632153,12583.501014,9770.718434,-73698.386908
26656.634755,-6513.812290,5181.441594,-75383.797003
26656.637356,6661.853478,5921.647536,-75230.577904
26656.639958,-28719.990550,5329.482782,-75690.235202
26656.642559,-6957.935855,7550.100608,-76303.111601
26656.645161,16728.654289,6069.688724,-77222.426198
26656.647762,3997.112087,6957.935855,-75690.235202
26656.650364,29756.278868,6661.853478,-73851.606007
26656.652965,-6513.812290,7994.224174,-73391.948708
26656.655567,-14952.160028,5625.565159,-75996.673402
26656.658169,-6365.771101,7254.018232,-77069.207099
26656.660770,13175.665768,11251.130318,-74004.825107
26656.663372,27535.661042,6365.771101,-75996.673402
26656.665973,8734.430116,5773.606348,-75077.358804
26656.668575,11843.295072,5329.482782,-73085.510509
26656.671176,-296.082377,6217.729913,-75843.454302
26656.673778,1184.329507,3256.906145,-77069.207099
26656.676379,-19245.354492,8290.306550,-75077.358804
26656.678981,27683.702231,9474.636058,-75077.358804
26656.681583,4441.235652,4885.359217,-75690.235202
26656.684184,8438.347739,2220.617826,-73698.386908
26656.686786,10214.842000,7254.018232,-71553.319513
26656.689387,-148.041188,5625.565159,-74770.920605
26656.691989,-444.123565,10214.842000,-75843.454302
26656.694590,18357.107362,7550.100608,-76149.892501
26656.697192,2220.617826,7254.018232,-74311.263306
26656.699793,2812.782580,2072.576638,-75077.358804
26656.702395,21317.931130,9178.553681,-74770.920605
26656.704996,592.164754,4441.235652,-75077.358804
26656.707598,-26499.372724,8142.265362,-76456.330700
26656.710199,2220.617826,7105.977043,-77528.864398
26656.712801,-11399.171507,11399.171507,-75537.016103
26656.715402,-1924.535449,3552.988522,-75996.673402
26656.718004,17764.942608,4145.153275,-74770.920605
26656.720605,2072.576638,5033.400406,-73391.948708
26656.723207,740.205942,6069.688724,-76303.111601
26656.725808,-8290.306550,8438.347739,-76303.111601
26656.728409,-27831.743419,9622.677246,-74617.701505
26656.731011,740.205942,3701.029710,-75077.358804
26656.733612,2960.823768,6365.771101,-73545.167808
26656.736214,13027.624579,4885.359217,-74770.920605
26656.738815,-7846.182985,3404.947333,-75996.673402
26656.741417,4145.153275,5477.523971,-75537.016103
26656.744018,-20429.683999,9030.512492,-76915.987999
26656.746620,-9770.718434,3849.070898,-77835.302597
26656.749221,0.000000,8438.347739,-75077.358804
26656.751823,11251.130318,4737.318029,-73851.606007
26656.754424,10362.883188,9326.594869,-74004.825107
26656.757026,-14211.954086,3552.988522,-73851.606007
26656.759627,2812.782580,6365.771101,-74311.263306
26656.762229,-29608.237680,7994.224174,-75383.797003
26656.764830,-14359.995275,7254.018232,-74924.139704
26656.767432,46929.056723,12583.501014,-77069.207099
26656.770033,-592.164754,6365.771101,-76915.987999
26656.772635,60844.928432,6513.812290,-76609.549800
26656.775236,-20577.725188,-2812.782580,-78907.836294
26656.777838,3108.864956,7254.018232,-77682.083497
26656.780439,2960.823768,7105.977043,-72779.072310
26656.783041,-7846.182985,11843.295072,-75690.235202
26656.785642,18949.272115,1480.411884,-77375.645298
26656.788244,24870.919651,12139.377449,-69561.471218
26656.790845,-13471.748144,1480.411884,-72319.415011
26656.793447,3849.070898,4737.318029,-76149.892501
26656.796047,-3701.029710,9178.553681,-75230.577904
26656.798648,-9030.512492,9030.512492,-73851.606007
26656.801248,29016.072926,5477.523971,-77375.645298
26656.803848,10510.924376,5329.482782,-75077.358804
26656.806449,14804.118840,4293.194464,-72932.291410
26656.809049,8438.347739,4293.194464,-74158.044206
26656.811650,-740.205942,7550.100608,-75690.235202
26656.814250,-2664.741391,10955.047942,-75230.577904
26656.816851,12139.377449,5625.565159,-75843.454302
26656.819451,4293.194464,7698.141797,-75077.358804
26656.822051,13323.706956,1924.535449,-74924.139704
26656.824652,18949.272115,5773.606348,-73238.729609
26656.827252,-26499.372724,2664.741391,-72319.415011
26656.829853,-5477.523971,10955.047942,-77069.207099
26656.832453,148.041188,11103.089130,-75843.454302
26656.835054,-16876.695478,9622.677246,-73391.948708
26656.837654,18505.148550,3552.988522,-77222.426198
26656.840255,16284.530724,2516.700203,-74464.482406
26656.842855,-6069.688724,6069.688724,-73085.510509
26656.845455,-1036.288319,3404.947333,-76609.549800
26656.848056,-17172.777854,10955.047942,-75690.235202
26656.850656,-148.041188,7254.018232,-75230.577904
26656.853257,-6809.894666,10807.006753,-73851.606007
26656.855857,592.164754,2220.617826,-75537.016103
26656.858458,17468.860231,3552.988522,-74770.920605
26656.861058,-3997.112087,8438.347739,-73085.510509
26656.863658,-10362.883188,6069.688724,-77988.521696
26656.866259,-9622.677246,8142.265362,-76762.768900
26656.868859,-7105.977043,9918.759623,-76303.111601
26656.871460,16284.530724,5477.523971,-74924.139704
26656.874060,592.164754,1924.535449,-74617.701505
26656.876661,1332.370696,2664.741391,-73085.510509
26656.879261,-10362.883188,5181.441594,-74924.139704
26656.881861,-22650.301825,9474.636058,-75996.673402
26656.884462,-13767.830521,7846.182985,-76762.768900
26656.887062,40711.326810,12583.501014,-75537.016103
26656.889663,-25759.166782,1924.535449,-74617.701505
26656.892263,55219.363273,10955.047942,-72319.415011
26656.894864,-27831.743419,-1628.453072,-75537.016103
26656.897464,-7402.059420,6217.729913,-76149.892501
26656.900065,17764.942608,6365.771101,-73391.948708
26656.902665,-23538.548956,16432.571912,-74617.701505
26656.905265,21614.013506,0.000000,-77682.083497
26656.907866,29016.072926,6957.935855,-74311.263306
26656.910466,9622.677246,2072.576638,-74617.701505
26656.913067,-13027.624579,592.164754,-78448.178995
26656.915667,-2664.741391,11399.171507,-73391.948708
26656.918268,-2368.659014,6809.894666,-75996.673402
26656.920866,8882.471304,7402.059420,-75996.673402
26656.923464,32569.061448,3701.029710,-74004.825107
26656.926063,-148.041188,7994.224174,-70480.785816
26656.928661,19097.313304,1776.494261,-73545.167808
26656.931259,-9030.512492,10807.006753,-74311.263306
26656.933858,2516.700203,5773.606348,-77835.302597
26656.936456,4145.153275,10362.883188,-73851.606007
26656.939055,15988.448347,7105.977043,-75843.454302
26656.941653,16432.571912,5033.400406,-75996.673402
26656.944251,5625.565159,740.205942,-73391.948708
26656.946850,-32865.143825,3701.029710,-75230.577904
26656.949448,17320.819043,3849.070898,-80286.808190
26656.952046,-13323.706956,12583.501014,-77528.864398
26656.954645,-5477.523971,9770.718434,-76915.987999
26656.957243,16284.530724,3108.864956,-75230.577904
26656.959842,3701.029710,5625.565159,-72012.976812
26656.962440,-6069.688724,6513.812290,-73545.167808
26656.965038,-15544.324782,5329.482782,-77375.645298
26656.967637,-17616.901420,9474.636058,-76149.892501
26656.970235,9030.512492,6809.894666,-75383.797003
26656.972833,7550.100608,8882.471304,-74311.263306
26656.975432,-2960.823768,3256.906145,-75690.235202
26656.978030,21317.931130,4737.318029,-74158.044206
26656.980629,-9918.759623,5477.523971,-74311.263306
26656.983227,-19393.395680,8142.265362,-78448.178995
26656.985825,-13915.871710,8882.471304,-78907.836294
26656.988424,592.164754,10066.800811,-73851.606007
26656.991022,5181.441594,3552.988522,-74464.482406
26656.993621,9178.553681,1628.453072,-73391.948708
26656.996219,-2072.576638,5033.400406,-73698.386908
26656.998817,-33013.185013,7994.224174,-75843.454302
26657.001416,-8142.265362,7698.141797,-76456.330700
26657.004013,30644.525999,10214.842000,-75843.454302
26657.006611,-32421.020260,592.164754,-75690.235202
26657.009208,77425.541533,1480.411884,-79980.369991
26657.011806,-4589.276840,-444.123565,-75690.235202
26657.014404,148.041188,7994.224174,-79520.712692
26657.017001,13027.624579,1480.411884,-76762.768900
26657.019599,-1776.494261,17320.819043,-76149.892501
26657.022196,14211.954086,2664.741391,-77375.645298
26657.024794,15692.365970,5181.441594,-71093.662214
26657.027392,7402.059420,6809.894666,-69255.033019
26657.029989,296.082377,4737.318029,-76303.111601
26657.032587,8438.347739,6809.894666,-75077.358804
26657.035184,-22206.178260,18505.148550,-70327.566716
26657.037782,17616.901420,5773.606348,-77069.207099
26657.040379,32421.020260,7846.182985,-76303.111601
26657.042977,4293.194464,3552.988522,-72779.072310
26657.045575,18801.230927,3552.988522,-74464.482406
26657.048172,-2516.700203,5033.400406,-74770.920605
26657.050770,-1776.494261,8290.306550,-76149.892501
26657.053367,-1776.494261,12435.459826,-74770.920605
26657.055965,16432.571912,6809.894666,-75996.673402
26657.058563,22058.137072,6069.688724,-74617.701505
26657.061160,2960.823768,-296.082377,-70634.004916
26657.063758,-22946.384202,8438.347739,-74158.044206
26657.066355,3404.947333,4145.153275,-77682.083497
26657.068953,-19393.395680,11103.089130,-76609.549800
26657.071550,4145.153275,6957.935855,-75996.673402
26657.074148,-2368.659014,-888.247130,-76149.892501
26657.076746,17616.901420,4293.194464,-74464.482406
26657.079343,-148.041188,5773.606348,-74158.044206
26657.081941,-26943.496289,7698.141797,-76456.330700
26657.084538,-16876.695478,6661.853478,-78294.959896
26657.087136,25907.207970,11843.295072,-74311.263306
26657.089734,-24574.837274,7994.224174,-75690.235202
26657.092331,26055.249158,-2516.700203,-76915.987999
26657.094929,-7846.182985,3701.029710,-70327.566716
26657.097526,740.205942,5921.647536,-72012.976812
26657.100124,-33013.185013,9918.759623,-76303.111601
26657.102722,-3997.112087,8438.347739,-77375.645298
26657.105319,10510.924376,12139.377449,-73851.606007
26657.107918,-10510.924376,2220.617826,-76303.111601
26657.110514,21169.889941,1480.411884,-74924.139704
26657.113110,-27239.578666,4441.235652,-73238.729609
26657.115705,740.205942,5773.606348,-77069.207099
26657.118301,-9030.512492,7698.141797,-76149.892501
26657.120896,34493.596897,20577.725188,-76609.549800
26657.123492,4145.153275,5625.565159,-79673.931792
26657.126088,68543.070229,2664.741391,-78754.617194
26657.128683,-8290.306550,740.205942,-76303.111601
26657.131279,1628.453072,6809.894666,-78907.836294
26657.133875,5625.565159,2960.823768,-76456.330700
26657.136470,-24278.754898,15692.365970,-74924.139704
26657.139066,18653.189738,1924.535449,-77375.645298
26657.141662,23538.548956,6661.853478,-74770.920605
26657.144257,13619.789333,5181.441594,-72779.072310
26657.146853,-18949.272115,2812.782580,-79673.931792
26657.149448,23834.631332,8734.430116,-75537.016103
26657.152044,-18061.024985,12435.459826,-74311.263306
26657.154640,13027.624579,7254.018232,-77528.864398
26657.157235,27979.784608,6957.935855,-75843.454302
26657.159831,6809.894666,5033.400406,-71553.319513
26657.162427,9178.553681,4737.318029,-73085.510509
26657.165022,-5921.647536,5477.523971,-77069.207099
26657.167618,-14063.912898,10510.924376,-76609.549800
26657.170214,14211.954086,8438.347739,-76762.768900
26657.172809,16432.571912,9622.677246,-75843.454302
26657.175405,9918.759623,-1628.453072,-76149.892501
26657.178000,-17172.777854,3701.029710,-71706.538613
26657.180596,-8586.388927,3849.070898,-77682.083497
26657.183192,-20725.766376,15100.201217,-75230.577904
26657.185787,-592.164754,9326.594869,-74617.701505
26657.188383,18949.272115,10510.924376,-76303.111601
26657.190979,11103.089130,2960.823768,-75996.673402
26657.193574,16284.530724,5625.565159,-73698.386908
26657.196170,-6661.853478,888.247130,-77222.426198
26657.198765,-15396.283594,5921.647536,-77528.864398
26657.201361,-15100.201217,11103.089130,-74004.825107
26657.203957,3849.070898,7698.141797,-76915.987999
26657.206552,-592.164754,6217.729913,-76456.330700
26657.209148,22206.178260,1480.411884,-75230.577904
26657.211742,-28275.866984,1628.453072,-72625.853210
26657.214335,-592.164754,6365.771101,-75843.454302
26657.216929,-25463.084405,10214.842000,-77988.521696
26657.219523,14359.995275,10807.006753,-76303.111601
26657.222117,1628.453072,9178.553681,-75077.358804
26657.224710,7550.100608,1332.370696,-74311.263306
26657.227304,-2220.617826,4293.194464,-70634.004916
26657.229898,-32865.143825,4885.359217,-73851.606007
26657.232492,-2516.700203,7105.977043,-75077.358804
26657.235085,15100.201217,11991.336260,-75690.235202
26657.237679,-31976.896694,740.205942,-76609.549800
26657.240273,62473.381505,1628.453072,-78754.617194
26657.242866,13323.706956,-592.164754,-74617.701505
26657.245460,-10807.006753,5477.523971,-79367.493593
26657.248054,18949.272115,1480.411884,-77682.083497
26657.250648,3552.988522,17616.901420,-76915.987999
26657.253241,15248.242405,7402.059420,-77528.864398
26657.255835,13175.665768,2220.617826,-76609.549800
26657.258429,8142.265362,2812.782580,-72166.195912
26657.261023,4145.153275,8290.306550,-74770.920605
26657.263616,-5477.523971,4737.318029,-76456.330700
26657.266210,-8586.388927,10955.047942,-76456.330700
26657.268804,15692.365970,9770.718434,-74311.263306
26657.271397,27979.784608,6365.771101,-75537.016103
26657.273991,13175.665768,5773.606348,-72012.976812
26657.276585,8882.471304,2368.659014,-72779.072310
26657.279179,1480.411884,4885.359217,-74158.044206
26657.281772,-7254.018232,11547.212695,-75843.454302
26657.284366,4737.318029,11103.089130,-77069.207099
26657.286960,18357.107362,8290.306550,-75843.454302
26657.289554,6217.729913,740.205942,-74158.044206
26657.292147,-25018.960840,-888.247130,-72932.291410
26657.294741,-592.164754,6513.812290,-75537.016103
26657.297335,-23982.672521,13619.789333,-75690.235202
26657.299928,-2516.700203,11251.130318,-74464.482406
26657.302522,15248.242405,9918.759623,-76456.330700
26657.305116,11399.171507,5773.606348,-73085.510509
26657.307710,2368.659014,6513.812290,-71859.757712
26657.310303,-19245.354492,1184.329507,-76762.768900
26657.312897,-18949.272115,6957.935855,-77222.426198
26657.315489,-3701.029710,7698.141797,-75690.235202
26657.318080,-23390.507767,14508.036463,-75383.797003
26657.320672,28275.866984,444.123565,-79061.055394
26657.323264,-1776.494261,7846.182985,-74464.482406
26657.325855,-11843.295072,-296.082377,-72625.853210
26657.328447,-10510.924376,7105.977043,-76303.111601
26657.331039,-10658.965565,7550.100608,-76915.987999
26657.333630,5181.441594,13175.665768,-75230.577904
26657.336222,-3997.112087,7994.224174,-75537.016103
26657.338813,18505.148550,740.205942,-76303.111601
26657.341405,-31680.814318,2960.823768,-71400.100414
26657.343997,-6957.935855,4441.235652,-74004.825107
26657.346588,16284.530724,11103.089130,-76303.111601
26657.349180,13027.624579,18949.272115,-77375.645298
26657.351772,23242.466579,6513.812290,-79673.931792
26657.354363,35677.926404,4885.359217,-71706.538613
26657.356955,-11695.253884,4145.153275,-70327.566716
26657.359546,-5921.647536,3404.947333,-75690.235202
26657.362138,3552.988522,6365.771101,-75843.454302
26657.364730,-14952.160028,13471.748144,-74617.701505
26657.367321,35233.802839,7105.977043,-78601.398095
26657.369913,11695.253884,1480.411884,-76303.111601
26657.372505,0.000000,3108.864956,-73238.729609
26657.375096,15840.407159,1480.411884,-77222.426198
26657.377688,-14508.036463,8438.347739,-76762.768900
26657.380279,10658.965565,11251.130318,-76149.892501
26657.382871,14656.077652,7698.141797,-77222.426198
26657.385463,19837.519246,6661.853478,-75383.797003
26657.388054,16136.489536,2812.782580,-71706.538613
26657.390646,-1480.411884,2960.823768,-74311.263306
26657.393238,-5773.606348,6957.935855,-75537.016103
26657.395829,-4145.153275,12139.377449,-76149.892501
26657.398421,22798.343014,12139.377449,-76762.768900
26657.401013,1628.453072,0.000000,-75077.358804
26657.403604,-11991.336260,1776.494261,-70940.443115
26657.406196,-15100.201217,7254.018232,-74004.825107
26657.408787,-21762.054695,12139.377449,-75843.454302
26657.411379,-14359.995275,9474.636058,-76303.111601
26657.413971,9474.636058,9178.553681,-76456.330700
26657.416562,1924.535449,1924.535449,-77222.426198
26657.419152,5329.482782,2960.823768,-72472.634111
26657.421741,10214.842000,1332.370696,-74004.825107
26657.424331,-25018.960840,8586.388927,-75690.235202
26657.426920,-14804.118840,7402.059420,-76456.330700
26657.429510,13175.665768,9178.553681,-76609.549800
26657.432099,-11547.212695,7550.100608,-75077.358804
26657.434689,16728.654289,1184.329507,-75690.235202
26657.437278,-17320.819043,888.247130,-71246.881314
26657.439868,-9474.636058,5329.482782,-75230.577904
26657.442457,-3701.029710,7994.224174,-77528.864398
26657.445047,-5773.606348,13915.871710,-76303.111601
26657.447636,2812.782580,8734.430116,-75843.454302
26657.450226,18061.024985,4885.359217,-75843.454302
26657.452815,-21021.848753,1184.329507,-74770.920605
26657.455405,-12879.583391,3256.906145,-75996.673402
26657.457994,25463.084405,5181.441594,-74924.139704
26657.460584,-2072.576638,13471.748144,-75383.797003
26657.463173,23094.425390,6365.771101,-76609.549800
26657.465763,20281.642811,6217.729913,-70634.004916
26657.468352,-10658.965565,5181.441594,-69408.252119
26657.470942,-12583.501014,3108.864956,-76149.892501
26657.473531,19689.478057,7846.182985,-76149.892501
26657.476121,-12139.377449,12879.583391,-75843.454302
26657.478711,29608.237680,6217.729913,-78294.959896
26657.481300,-3108.864956,2220.617826,-75383.797003
26657.483890,14359.995275,6661.853478,-73698.386908
26657.486479,-148.041188,-2812.782580,-78754.617194
26657.489069,2220.617826,13619.789333,-76303.111601
26657.491658,6809.894666,8142.265362,-77835.302597
26657.494248,27979.784608,10658.965565,-79673.931792
26657.496837,1480.411884,4737.318029,-75843.454302
26657.499427,13175.665768,3701.029710,-73698.386908
26657.502016,10510.924376,2072.576638,-73698.386908
26657.504606,-8882.471304,9918.759623,-75690.235202
26657.507195,7402.059420,11991.336260,-76762.768900
26657.509785,10362.883188,9770.718434,-77375.645298
26657.512374,21910.095883,6957.935855,-74617.701505
26657.514964,-32272.979071,-1184.329507,-72625.853210
26657.517553,1924.535449,6069.688724,-73391.948708
26657.520143,-18357.107362,11843.295072,-72319.415011
26657.522730,-5181.441594,12879.583391,-76762.768900
26657.525318,13175.665768,7846.182985,-78754.617194
26657.527906,18357.107362,9474.636058,-74158.044206
26657.530494,-11251.130318,2072.576638,-72012.976812
26657.533081,2368.659014,-1036.288319,-75077.358804
26657.535669,-33013.185013,9770.718434,-73545.167808
26657.538257,5773.606348,6069.688724,-75383.797003
26657.540845,-9918.759623,12879.583391,-76915.987999
26657.543432,-1184.329507,8142.265362,-74924.139704
26657.546020,13323.706956,1184.329507,-73238.729609
26657.548608,-18653.189738,5033.400406,-72472.634111
26657.551196,-4737.318029,2664.741391,-75230.577904
26657.553783,-15396.283594,11843.295072,-76609.549800
26657.556371,4737.318029,9474.636058,-76456.330700
26657.558959,1184.329507,8882.471304,-75996.673402
26657.561547,7698.141797,2220.617826,-75077.358804
26657.564134,-15692.365970,3256.906145,-75230.577904
26657.566722,4885.359217,3552.988522,-73851.606007
26657.569310,11547.212695,15840.407159,-74158.044206
26657.571897,-18357.107362,4589.276840,-76762.768900
26657.574485,44264.315332,3552.988522,-76915.987999
26657.577073,3108.864956,740.205942,-72779.072310
26657.579661,-4885.359217,4885.359217,-74770.920605
26657.582248,10362.883188,1480.411884,-75690.235202
26657.584836,-10362.883188,14211.954086,-75690.235202
26657.587424,22354.219448,4737.318029,-77988.521696
26657.590012,22502.260637,8290.306550,-75690.235202
26657.592599,-6217.729913,4737.318029,-71859.757712
26657.595187,10362.883188,2516.700203,-74311.263306
26657.597775,4145.153275,5625.565159,-74770.920605
26657.600363,-9474.636058,9918.759623,-75690.235202
26657.602950,19541.436869,8438.347739,-76609.549800
26657.605538,26499.372724,8438.347739,-76609.549800
26657.608126,1036.288319,6217.729913,-72166.195912
26657.610714,13175.665768,888.247130,-74004.825107
26657.613301,-6809.894666,7254.018232,-73391.948708
26657.615889,0.000000,8142.265362,-77375.645298
26657.618477,9178.553681,12879.583391,-76303.111601
26657.621065,21910.095883,6217.729913,-75996.673402
26657.623652,-15544.324782,4589.276840,-73545.167808
26657.626237,-1036.288319,5477.523971,-72779.072310
26657.628823,-21614.013506,11547.212695,-72472.634111
26657.631408,-19393.395680,10066.800811,-75690.235202
26657.633993,6809.894666,8438.347739,-76456.330700
26657.636578,13619.789333,6069.688724,-77222.426198
26657.639163,2220.617826,6069.688724,-74004.825107
26657.641748,1924.535449,-444.123565,-77375.645298
26657.644333,-4589.276840,4145.153275,-75537.016103
26657.646918,-18357.107362,8882.471304,-75230.577904
26657.649504,-4145.153275,9030.512492,-76303.111601
26657.652089,296.082377,6957.935855,-75843.454302
26657.654674,3256.906145,3997.112087,-73851.606007
26657.657259,-2220.617826,3108.864956,-70940.443115
26657.659844,-17024.736666,4145.153275,-72166.195912
26657.662429,-8882.471304,6513.812290,-75077.358804
26657.665014,-5181.441594,11695.253884,-76762.768900
26657.667599,6661.853478,7994.224174,-76456.330700
26657.670184,2516.700203,6069.688724,-75077.358804
26657.672770,-17764.942608,2812.782580,-74770.920605
26657.675355,3108.864956,2516.700203,-75230.577904
26657.677940,14063.912898,14063.912898,-74004.825107
26657.680525,-7846.182985,5329.482782,-77988.521696
26657.683110,25759.166782,4885.359217,-77682.083497
26657.685695,10362.883188,3997.112087,-73391.948708
26657.688280,-5329.482782,3701.029710,-76762.768900
26657.690865,12879.583391,3701.029710,-75843.454302
26657.693451,-5477.523971,11399.171507,-73085.510509
26657.696036,20133.601622,7994.224174,-74924.139704
26657.698621,11547.212695,11991.336260,-73698.386908
26657.701206,444.123565,2220.617826,-74311.263306
26657.703791,9770.718434,1184.329507,-75383.797003
26657.706376,-592.164754,10066.800811,-72166.195912
26657.708961,-3108.864956,7698.141797,-76762.768900
26657.711546,24870.919651,11103.089130,-76149.892501
26657.714132,17912.983796,6217.729913,-75996.673402
26657.716717,5329.482782,5921.647536,-74004.825107
26657.719302,3701.029710,-2220.617826,-74464.482406
26657.721887,5033.400406,6809.894666,-73085.510509
26657.724472,-1332.370696,7254.018232,-76915.987999
26657.727057,9770.718434,14063.912898,-75537.016103
26657.729640,12435.459826,7846.182985,-74464.482406
26657.732223,-36566.173535,1036.288319,-74924.139704
26657.734806,5329.482782,6809.894666,-74004.825107
26657.737389,-14508.036463,8290.306550,-72932.291410
26657.739972,-14656.077652,11991.336260,-73698.386908
26657.742555,7550.100608,5773.606348,-76915.987999
26657.745138,22058.137072,9474.636058,-75383.797003
26657.747721,-9474.636058,6957.935855,-72625.853210
26657.750304,-4589.276840,1480.411884,-74924.139704
26657.752887,-17468.860231,1924.535449,-75843.454302
26657.755470,-18357.107362,10807.006753,-73085.510509
26657.758053,4441.235652,10066.800811,-76149.892501
26657.760635,-3849.070898,6809.894666,-77222.426198
26657.763218,20133.601622,7994.224174,-73238.729609
26657.765801,-23390.507767,1184.329507,-73391.948708
26657.768384,-888.247130,2368.659014,-73545.167808
26657.770967,-2220.617826,10362.883188,-75383.797003
26657.773550,-9030.512492,9178.553681,-76149.892501
26657.776133,14359.995275,6957.935855,-76303.111601
26657.778716,-19097.313304,5921.647536,-74924.139704
26657.781299,-3552.988522,2812.782580,-75230.577904
26657.783882,16580.613101,4885.359217,-74004.825107
26657.786465,10658.965565,14656.077652,-73391.948708
26657.789048,11695.253884,5773.606348,-77222.426198
26657.791631,8290.306550,7402.059420,-74004.825107
26657.794214,-12879.583391,4293.194464,-74158.044206
26657.796797,6513.812290,5625.565159,-76303.111601
26657.799380,3552.988522,7105.977043,-74770.920605
26657.801963,-1924.535449,10658.965565,-74311.263306
26657.804546,29460.196492,5329.482782,-78907.836294
26657.807129,8734.430116,8438.347739,-74924.139704
26657.809712,-11103.089130,444.123565,-74311.263306
26657.812294,13915.871710,1480.411884,-76149.892501
26657.814877,-12287.418637,10658.965565,-72779.072310
26657.817460,19689.478057,6365.771101,-75843.454302
26657.820043,25907.207970,10362.883188,-75690.235202
26657.822626,148.041188,4737.318029,-74770.920605
26657.825209,7846.182985,888.247130,-74617.701505
26657.827792,5033.400406,5181.441594,-74158.044206
26657.830375,-2664.741391,7994.224174,-76609.549800
26657.832956,10658.965565,10362.883188,-75996.673402
26657.835537,18949.272115,6957.935855,-75843.454302
26657.838118,-16728.654289,6661.853478,-72932.291410
26657.840699,-7846.182985,3256.906145,-75843.454302
26657.843280,-3552.988522,4737.318029,-74004.825107
26657.845861,-23538.548956,9770.718434,-73698.386908
26657.848442,6217.729913,4885.359217,-76456.330700
26657.851023,19837.519246,7254.018232,-76762.768900
26657.853604,2516.700203,7402.059420,-72625.853210
26657.856185,-7846.182985,1776.494261,-76609.549800
26657.858766,-7254.018232,2516.700203,-74770.920605
26657.861347,-18949.272115,9770.718434,-73238.729609
26657.863928,740.205942,7550.100608,-76303.111601
26657.866509,-888.247130,9770.718434,-75690.235202
26657.869090,5773.606348,6513.812290,-76609.549800
26657.871671,444.123565,4145.153275,-74770.920605
26657.874252,-21021.848753,3701.029710,-75230.577904
26657.876833,4885.359217,7105.977043,-75383.797003
26657.879414,-10510.924376,11695.253884,-75383.797003
26657.881995,5773.606348,6809.894666,-76303.111601
26657.884576,-4589.276840,5625.565159,-75537.016103
26657.887157,-11251.130318,5329.482782,-74617.701505
26657.889737,15248.242405,4885.359217,-74311.263306
26657.892318,3701.029710,10214.842000,-74158.044206
26657.894899,16876.695478,6217.729913,-76609.549800
26657.897480,4293.194464,6957.935855,-73698.386908
26657.900061,5329.482782,5477.523971,-75077.358804
26657.902642,-5033.400406,8734.430116,-75690.235202
26657.905223,4737.318029,4885.359217,-74924.139704
26657.907804,3552.988522,7846.182985,-74158.044206
26657.910385,28275.866984,8882.471304,-74770.920605
26657.912966,8142.265362,4293.194464,-76609.549800
26657.915547,1628.453072,5329.482782,-76303.111601
26657.918128,10658.965565,3404.947333,-76303.111601
26657.920709,1036.288319,5033.400406,-78601.398095
26657.923290,10658.965565,8290.306550,-76149.892501
26657.925871,23390.507767,7698.141797,-76915.987999
26657.928452,2960.823768,7254.018232,-75383.797003
26657.931033,6069.688724,2220.617826,-75230.577904
26657.933614,1776.494261,8734.430116,-72625.853210
26657.936193,2812.782580,5181.441594,-76456.330700
26657.938772,7402.059420,13175.665768,-75537.016103
26657.941351,14952.160028,3997.112087,-75996.673402
26657.943930,-26795.455100,6661.853478,-73851.606007
26657.946509,-2960.823768,4145.153275,-75843.454302
26657.949088,-7846.182985,5773.606348,-74924.139704
26657.951667,-18801.230927,9030.512492,-72625.853210
26657.954246,9474.636058,5181.441594,-76609.549800
26657.956825,16284.530724,8290.306550,-75230.577904
26657.959404,-2664.741391,7994.224174,-74158.044206
26657.961983,-8142.265362,3256.906145,-75843.454302
26657.964562,-8438.347739,4441.235652,-74770.920605
26657.967142,-25315.043216,8142.265362,-73698.386908
26657.969721,14508.036463,8882.471304,-75230.577904
26657.972300,-6661.853478,4441.235652,-78294.959896
26657.974879,17912.983796,8290.306550,-76609.549800
26657.977458,-15248.242405,1924.535449,-74311.263306
26657.980037,-11103.089130,6365.771101,-75383.797003
26657.982616,-2220.617826,7105.977043,-75230.577904
26657.985195,-5477.523971,9622.677246,-75077.358804
26657.987774,2812.782580,7994.224174,-74770.920605
26657.990353,-10510.924376,4737.318029,-76456.330700
26657.992932,-1924.535449,4737.318029,-76303.111601
26657.995511,11843.295072,9918.759623,-73545.167808
26657.998090,-3997.112087,3849.070898,-75996.673402
26658.000669,29460.196492,5033.400406,-75383.797003
26658.003248,-888.247130,5181.441594,-73391.948708
26658.005827,7254.018232,6513.812290,-76303.111601
26658.008406,1480.411884,7105.977043,-75230.577904
26658.010985,6513.812290,9178.553681,-74311.263306
26658.013564,10955.047942,6661.853478,-75077.358804
26658.016143,3701.029710,9622.677246,-74158.044206
26658.018722,7550.100608,740.205942,-75690.235202
26658.021301,-740.205942,8142.265362,-73085.510509
26658.023880,6365.771101,3701.029710,-75843.454302
26658.026459,-9030.512492,9918.759623,-74617.701505
26658.029038,36122.049970,4441.235652,-75383.797003
26658.031617,2220.617826,11695.253884,-73851.606007
26658.034196,17764.942608,1924.535449,-75843.454302
26658.036776,-7846.182985,3404.947333,-73698.386908
26658.039352,7698.141797,6957.935855,-73391.948708
26658.041928,4293.194464,9918.759623,-75230.577904
26658.044505,16136.489536,8438.347739,-75077.358804
26658.047081,-10066.800811,4589.276840,-73851.606007
26658.049658,-7846.182985,4145.153275,-76303.111601
26658.052234,296.082377,6513.812290,-76303.111601
26658.054811,-22354.219448,8586.388927,-75077.358804
26658.057387,2812.782580,4441.235652,-76149.892501
26658.059964,9326.594869,6365.771101,-75996.673402
26658.062540,8586.388927,9326.594869,-73238.729609
26658.065117,-11399.171507,3997.112087,-74770.920605
26658.067693,-7105.977043,4441.235652,-74924.139704
26658.070270,-14804.118840,7846.182985,-74158.044206
26658.072846,-2812.782580,7698.141797,-74924.139704
26658.075423,-3701.029710,8882.471304,-75843.454302
26658.077999,9918.759623,5921.647536,-74924.139704
26658.080576,1184.329507,5329.482782,-75843.454302
26658.083152,-21317.931130,3108.864956,-76609.549800
26658.085729,4293.194464,7402.059420,-75230.577904
26658.088305,-12435.459826,7846.182985,-75690.235202
26658.090882,5625.565159,7994.224174,-75996.673402
26658.093458,-12731.542202,6513.812290,-75383.797003
26658.096035,1036.288319,3997.112087,-76149.892501
26658.098611,11547.212695,6661.853478,-74004.825107
26658.101188,-3701.029710,4293.194464,-74311.263306
26658.103764,22354.219448,8142.265362,-74004.825107
26658.106340,-4441.235652,4737.318029,-73851.606007
26658.108917,6957.935855,8142.265362,-74311.263306
26658.111493,-148.041188,5625.565159,-77069.207099
26658.114070,8290.306550,7846.182985,-74158.044206
26658.116646,11547.212695,5329.482782,-73085.510509
26658.119223,22502.260637,8290.306550,-74004.825107
26658.121799,-3701.029710,5921.647536,-75077.358804
26658.124376,18061.024985,4885.359217,-74924.139704
26658.126952,-3701.029710,7550.100608,-74311.263306
26658.129529,-1184.329507,8586.388927,-75077.358804
26658.132105,15692.365970,4737.318029,-75383.797003
26658.134682,26795.455100,9622.677246,-74158.044206
26658.137258,-4589.276840,5625.565159,-74158.044206
26658.139835,6069.688724,-148.041188,-75230.577904
26658.142409,9918.759623,6513.812290,-75077.358804
26658.144983,-1332.370696,11547.212695,-76303.111601
26658.147558,20133.601622,5477.523971,-77375.645298
26658.150132,-17616.901420,7105.977043,-73085.510509
26658.152707,1924.535449,4589.276840,-76609.549800
26658.155282,-13175.665768,7402.059420,-76303.111601
26658.157856,-16728.654289,8290.306550,-74004.825107
26658.160431,-3701.029710,4145.153275,-76456.330700
26658.163005,13915.871710,8438.347739,-76149.892501
26658.165580,5477.523971,7846.182985,-74004.825107
26658.168154,-9030.512492,6513.812290,-74311.263306
26658.170729,-1924.535449,3552.988522,-75077.358804
26658.173304,-25463.084405,6661.853478,-73085.510509
26658.175878,-148.041188,5033.400406,-74770.920605
26658.178453,592.164754,8438.347739,-76915.987999
26658.181027,6661.853478,6957.935855,-76915.987999
26658.183602,-5033.400406,3701.029710,-73545.167808
26658.186176,-16284.530724,5329.482782,-73391.948708
26658.188751,-5625.565159,5625.565159,-75383.797003
26658.191326,-6957.935855,9030.512492,-74924.139704
26658.193900,-888.247130,7994.224174,-75383.797003
26658.196475,-8142.265362,7846.182985,-74924.139704
26658.199049,888.247130,2516.700203,-75230.577904
26658.201624,22502.260637,9178.553681,-73698.386908
26658.204199,296.082377,4145.153275,-75077.358804
26658.206773,25315.043216,4589.276840,-75996.673402
26658.209348,740.205942,3997.112087,-76149.892501
26658.211922,10362.883188,7994.224174,-76456.330700
26658.214497,-592.164754,6069.688724,-76456.330700
26658.217071,2368.659014,7402.059420,-76609.549800
26658.219646,21317.931130,4589.276840,-76303.111601
26658.222221,3552.988522,10955.047942,-74004.825107
26658.224760,15100.201217,5625.565159,-74158.044206
26658.227299,4293.194464,5773.606348,-75077.358804
26658.229838,4441.235652,7550.100608,-77069.207099
26658.232377,888.247130,6809.894666,-74770.920605
26658.234916,19097.313304,5773.606348,-76762.768900
26658.237455,7698.141797,8142.265362,-75690.235202
26658.239994,2664.741391,1332.370696,-74464.482406
26658.242533,7994.224174,5773.606348,-74311.263306
26658.245072,-296.082377,7994.224174,-76303.111601
26658.247611,11103.089130,12139.377449,-76915.987999
26658.250150,5921.647536,2516.700203,-76149.892501
26658.252689,-24130.713709,6365.771101,-75077.358804
26658.255228,-3997.112087,7698.141797,-75537.016103
26658.257767,-13619.789333,4589.276840,-75383.797003
26658.260306,-6069.688724,7254.018232,-75537.016103
26658.262845,14508.036463,6069.688724,-74617.701505
26658.265384,2220.617826,7698.141797,-75537.016103
26658.267923,-2664.741391,7402.059420,-75230.577904
26658.270463,-12879.583391,6365.771101,-76762.768900
26658.273002,-8290.306550,1036.288319,-76303.111601
26658.275541,-3849.070898,8586.388927,-74924.139704
26658.278080,-5477.523971,8142.265362,-74158.044206
26658.280619,8734.430116,5773.606348,-76303.111601
26658.283158,-2960.823768,8290.306550,-75690.235202
26658.285697,-5625.565159,5181.441594,-75843.454302
26658.288236,-10362.883188,5921.647536,-74770.920605
26658.290775,-6661.853478,5181.441594,-75230.577904
26658.293314,-888.247130,11103.089130,-75690.235202
26658.295853,-11103.089130,5625.565159,-75230.577904
26658.298392,1332.370696,8142.265362,-75077.358804
26658.300931,18505.148550,5329.482782,-74924.139704
26658.303470,-8734.430116,6513.812290,-74770.920605
26658.306009,29608.237680,3256.906145,-73545.167808
26658.308548,-8290.306550,6365.771101,-74004.825107
26658.311087,7254.018232,6069.688724,-75843.454302
26658.313626,2220.617826,11251.130318,-75383.797003
26658.316165,2072.576638,4293.194464,-74004.825107
26658.318704,15692.365970,9326.594869,-73238.729609
26658.321244,21762.054695,5773.606348,-75077.358804
26658.323783,-11251.130318,6069.688724,-73391.948708
26658.326322,25167.002028,6217.729913,-74158.044206
26658.328861,-9030.512492,6365.771101,-74770.920605
26658.331400,2072.576638,9770.718434,-74924.139704
26658.333939,15100.201217,3256.906145,-74617.701505
26658.336478,21465.972318,9178.553681,-75690.235202
26658.339017,-1628.453072,2664.741391,-73851.606007
26658.341556,7402.059420,5921.647536,-74770.920605
26658.344095,2072.576638,7550.100608,-74004.825107
26658.346606,2220.617826,9474.636058,-76456.330700
26658.349118,12731.542202,6217.729913,-75843.454302
26658.351629,-25463.084405,5181.441594,-72779.072310
26658.354141,2664.741391,7254.018232,-75996.673402
26658.356652,-17912.983796,6513.812290,-75383.797003
26658.359164,-10362.883188,7550.100608,-74617.701505
26658.361675,14656.077652,6217.729913,-75996.673402
26658.364187,3701.029710,7994.224174,-76456.330700
26658.366698,10362.883188,5921.647536,-76149.892501
26658.369210,-7550.100608,7698.141797,-74770.920605
26658.371721,-22650.301825,2072.576638,-76456.330700
26658.374233,1184.329507,6661.853478,-75077.358804
26658.376744,-12583.501014,6513.812290,-74770.920605
26658.379256,5329.482782,6217.729913,-76915.987999
26658.381767,4441.235652,6957.935855,-74617.701505
26658.384279,-10955.047942,4885.359217,-73851.606007
26658.386790,-7550.100608,5033.400406,-73545.167808
26658.389302,-7994.224174,6217.729913,-75690.235202
26658.391813,-4441.235652,9030.512492,-75230.577904
26658.394325,-7105.977043,6809.894666,-75690.235202
26658.396836,-3552.988522,8290.306550,-73391.948708
26658.399348,26499.372724,5921.647536,-75996.673402
26658.401859,-12731.542202,6365.771101,-74004.825107
26658.404371,26647.413912,2812.782580,-74158.044206
26658.406882,-7550.100608,5773.606348,-73698.386908
26658.409394,10658.965565,6661.853478,-75996.673402
26658.411905,-1184.329507,11695.253884,-75230.577904
26658.414417,6957.935855,3552.988522,-75843.454302
26658.416928,20133.601622,5625.565159,-75383.797003
26658.419440,4589.276840,3404.947333,-74770.920605
26658.421951,-592.164754,4589.276840,-74158.044206
26658.424463,13471.748144,1924.535449,-75230.577904
26658.426985,-740.205942,11843.295072,-73851.606007
26658.429507,1332.370696,9030.512492,-75230.577904
26658.432029,19541.436869,7846.182985,-75843.454302
26658.434551,22502.260637,8734.430116,-75230.577904
26658.437073,-1924.535449,3404.947333,-74924.139704
26658.439596,4589.276840,6365.771101,-75383.797003
26658.442118,11103.089130,6661.853478,-75077.358804
26658.444640,3552.988522,10658.965565,-76762.768900
26658.447162,5773.606348,4589.276840,-74311.263306
26658.449684,-15100.201217,6217.729913,-75077.358804
26658.452206,-1924.535449,5625.565159,-75996.673402
26658.454728,-18061.024985,5773.606348,-75843.454302
26658.457250,-3404.947333,5477.523971,-74924.139704
26658.459772,11843.295072,5477.523971,-76303.111601
26658.462294,-1036.288319,8142.265362,-76456.330700
26658.464817,2812.782580,5625.565159,-77222.426198
26658.467339,-9178.553681,7105.977043,-76609.549800
26658.469861,-21614.013506,2664.741391,-77528.864398
26658.472383,-5625.565159,6957.935855,-74770.920605
26658.474905,-740.205942,7254.018232,-76303.111601
26658.477427,740.205942,8734.430116,-77375.645298
26658.479949,-1332.370696,2960.823768,-74004.825107
26658.482471,-7550.100608,7994.224174,-73545.167808
26658.484993,-9474.636058,2072.576638,-76303.111601
26658.487515,-7550.100608,5477.523971,-75843.454302
26658.490037,-6069.688724,9918.759623,-74158.044206
26658.492560,-8438.347739,7254.018232,-76149.892501
26658.495082,7254.018232,5329.482782,-75537.016103
26658.497604,30052.361245,9770.718434,-75537.016103
26658.500126,8142.265362,5033.400406,-75230.577904
26658.502648,15840.407159,6365.771101,-72166.195912
26658.505170,-7994.224174,2664.741391,-75077.358804
26658.507692,6069.688724,10066.800811,-75537.016103
26658.510214,0.000000,7402.059420,-74924.139704
26658.512736,9770.718434,3404.947333,-75230.577904
26658.515258,29164.114115,6809.894666,-73851.606007
26658.517781,-2516.700203,8438.347739,-73698.386908
26658.520303,5921.647536,3552.988522,-74004.825107
26658.522825,9030.512492,8882.471304,-76762.768900
26658.525347,-5033.400406,10214.842000,-77528.864398
26658.527879,20577.725188,3108.864956,-76915.987999
26658.530411,15840.407159,10658.965565,-74311.263306
26658.532944,7846.182985,1480.411884,-76609.549800
26658.535476,-6365.771101,4441.235652,-73545.167808
26658.538008,22206.178260,3404.947333,-74004.825107
26658.540541,-2960.823768,11843.295072,-76456.330700
26658.543073,15840.407159,4737.318029,-76915.987999
26658.545605,-27091.537477,7698.141797,-72319.415011
26658.548138,7550.100608,4441.235652,-75690.235202
26658.550670,-21465.972318,8586.388927,-74617.701505
26658.553202,-15692.365970,6365.771101,-73391.948708
26658.555734,9030.512492,6217.729913,-74770.920605
26658.558267,6069.688724,7105.977043,-75537.016103
26658.560799,3404.947333,8882.471304,-75843.454302
26658.563331,-11103.089130,5181.441594,-76762.768900
26658.565864,-9474.636058,4885.359217,-75537.016103
26658.568396,-5181.441594,7698.141797,-75383.797003
26658.570928,-9326.594869,7105.977043,-73698.386908
26658.573461,13767.830521,5477.523971,-77069.207099
26658.575993,1332.370696,8438.347739,-76915.987999
26658.578525,-6069.688724,5181.441594,-76456.330700
26658.581057,-11399.171507,5773.606348,-74004.825107
26658.583590,-5625.565159,4441.235652,-75843.454302
26658.586122,-5033.400406,11399.171507,-73391.948708
26658.588654,-12731.542202,6661.853478,-76149.892501
26658.591187,2368.659014,5773.606348,-75537.016103
26658.593719,27831.743419,7994.224174,-76303.111601
26658.596251,-10362.883188,5181.441594,-74924.139704
26658.598784,30940.608376,2812.782580,-74617.701505
26658.601316,-4737.318029,3256.906145,-75383.797003
26658.603848,5329.482782,8586.388927,-77528.864398
26658.606380,3552.988522,9030.512492,-76609.549800
26658.608913,-1628.453072,6513.812290,-75383.797003
26658.611445,25018.960840,5033.400406,-76149.892501
26658.613977,1184.329507,6069.688724,-73851.606007
26658.616510,-2220.617826,740.205942,-75996.673402
26658.619042,18357.107362,5921.647536,-75383.797003
26658.621574,-6513.812290,9030.512492,-75690.235202
26658.624107,9622.677246,5921.647536,-77069.207099
26658.626639,26943.496289,8290.306550,-75843.454302
26658.629179,1184.329507,5773.606348,-75843.454302
26658.631719,-1036.288319,1776.494261,-74770.920605
26658.634259,11103.089130,6809.894666,-73851.606007
26658.636800,3552.988522,11843.295072,-75077.358804
26658.639340,8734.430116,7698.141797,-77835.302597
26658.641880,-16136.489536,5033.400406,-74004.825107
26658.644420,1776.494261,8290.306550,-74464.482406
26658.646960,-17912.983796,4885.359217,-76303.111601
26658.649500,-11399.171507,5921.647536,-74617.701505
26658.652041,13323.706956,6217.729913,-74617.701505
26658.654581,-6217.729913,6513.812290,-75996.673402
26658.657121,11843.295072,8438.347739,-76149.892501
26658.659661,-14508.036463,9622.677246,-74924.139704
26658.662201,-14211.954086,3256.906145,-76762.768900
26658.664741,-14804.118840,5625.565159,-74464.482406
26658.667282,5773.606348,6069.688724,-75230.577904
26658.669822,2072.576638,9178.553681,-75843.454302
26658.672362,6069.688724,6513.812290,-75843.454302
26658.674902,-13471.748144,6957.935855,-75077.358804
26658.677442,-7105.977043,3552.988522,-75996.673402
26658.679982,-10066.800811,7550.100608,-75077.358804
26658.682523,-11547.212695,7550.100608,-75537.016103
26658.685063,-6217.729913,8438.347739,-76149.892501
26658.687603,7105.977043,5477.523971,-75843.454302
26658.690143,32124.937883,10955.047942,-75537.016103
26658.692683,12139.377449,5625.565159,-72779.072310
26658.695223,6513.812290,5477.523971,-71400.100414
26658.697764,-4885.359217,3849.070898,-75690.235202
26658.700304,1184.329507,10066.800811,-75537.016103
26658.702844,740.205942,8586.388927,-75077.358804
26658.705384,10214.842000,5477.523971,-73545.167808
26658.707924,18061.024985,8734.430116,-73391.948708
26658.710464,5477.523971,6513.812290,-74464.482406
26658.713005,8142.265362,2220.617826,-74311.263306
26658.715545,9030.512492,13915.871710,-73851.606007
26658.718085,-1776.494261,6217.729913,-78601.398095
26658.720625,18061.024985,10214.842000,-75843.454302
26658.723165,21021.848753,5477.523971,-75996.673402
26658.725705,1628.453072,5773.606348,-75690.235202
26658.728246,-7254.018232,592.164754,-74158.044206
26658.730793,17468.860231,7254.018232,-74004.825107
26658.733340,592.164754,10362.883188,-76149.892501
26658.735887,-4145.153275,4589.276840,-76609.549800
26658.738434,-5477.523971,7402.059420,-74924.139704
26658.740981,-6217.729913,5329.482782,-75996.673402
26658.743528,-15692.365970,6809.894666,-75537.016103
26658.746075,-592.164754,4145.153275,-74158.044206
26658.748622,8882.471304,8438.347739,-73851.606007
26658.751169,-5773.606348,5625.565159,-76762.768900
26658.753716,10955.047942,9030.512492,-76149.892501
26658.756263,-9622.677246,8290.306550,-73545.167808
26658.758810,-23686.590144,3849.070898,-75230.577904
26658.761357,7105.977043,6957.935855,-73698.386908
26658.763904,-16136.489536,5773.606348,-75996.673402
26658.766451,26351.331535,7994.224174,-78141.740796
26658.768998,-14359.995275,6513.812290,-75843.454302
26658.771545,1776.494261,7550.100608,-76609.549800
26658.774092,-9326.594869,7105.977043,-73698.386908
26658.776639,-17616.901420,6809.894666,-74924.139704
26658.779186,-2220.617826,7698.141797,-76149.892501
26658.781733,-14952.160028,5773.606348,-75690.235202
26658.784280,42931.944636,6957.935855,-75537.016103
26658.786827,-22798.343014,4589.276840,-75077.358804
26658.789374,32272.979071,3108.864956,-75690.235202
26658.791921,-14063.912898,4589.276840,-72472.634111
26658.794468,11399.171507,6217.729913,-74924.139704
26658.797015,-8586.388927,13027.624579,-75537.016103
26658.799562,22650.301825,4441.235652,-75843.454302
26658.802110,18061.024985,7846.182985,-74464.482406
26658.804657,1776.494261,4441.235652,-75843.454302
26658.807204,13027.624579,1628.453072,-75383.797003
26658.809751,2072.576638,9326.594869,-75077.358804
26658.812298,5477.523971,10658.965565,-74464.482406
26658.814845,-3552.988522,7402.059420,-77222.426198
26658.817392,28423.908173,8438.347739,-73851.606007
26658.819939,3256.906145,3256.906145,-75230.577904
26658.822486,-888.247130,2220.617826,-74158.044206
26658.825033,18061.024985,2516.700203,-74924.139704
26658.827580,-2368.659014,14952.160028,-73391.948708
26658.830127,10510.924376,6069.688724,-77528.864398
26658.832679,-19541.436869,6957.935855,-72932.291410
26658.835231,7994.224174,6513.812290,-74924.139704
26658.837783,-20133.601622,6217.729913,-76609.549800
26658.840335,-5625.565159,3849.070898,-75230.577904
26658.842887,8586.388927,7846.182985,-74158.044206
26658.845439,-296.082377,5329.482782,-76149.892501
26658.847991,12583.501014,10066.800811,-74617.701505
26658.850542,-22650.301825,7254.018232,-75383.797003
26658.853094,-2664.741391,3552.988522,-75383.797003
26658.855646,-7550.100608,5033.400406,-75996.673402
26658.858198,-4145.153275,10066.800811,-74311.263306
26658.860750,10214.842000,6217.729913,-76609.549800
26658.863302,-8290.306550,9770.718434,-76915.987999
26658.865854,3108.864956,5181.441594,-77528.864398
26658.868406,-17320.819043,5921.647536,-73698.386908
26658.870958,-5033.400406,3997.112087,-74770.920605
26658.873510,-15248.242405,8882.471304,-75996.673402
26658.876062,-5773.606348,4885.359217,-76609.549800
26658.878614,30052.361245,6809.894666,-75230.577904
26658.881166,-6661.853478,5033.400406,-75383.797003
26658.883718,26499.372724,3552.988522,-74770.920605
26658.886270,-13175.665768,6365.771101,-72472.634111
26658.888822,7105.977043,5477.523971,-74924.139704
26658.891374,-7254.018232,12731.542202,-76762.768900
26658.893926,9622.677246,6217.729913,-75996.673402
26658.896478,13619.789333,9474.636058,-72779.072310
26658.899029,27979.784608,4885.359217,-74311.263306
26658.901581,-5477.523971,2072.576638,-74158.044206
26658.904133,18505.148550,4145.153275,-74924.139704
26658.906685,-12435.459826,10066.800811,-74617.701505
26658.909237,5181.441594,8586.388927,-75690.235202
26658.911789,24278.754898,8882.471304,-74311.263306
26658.914341,14656.077652,4885.359217,-74770.920605
26658.916893,-1036.288319,3849.070898,-73851.606007
26658.919445,14508.036463,4737.318029,-74464.482406
26658.921997,3552.988522,10510.924376,-74617.701505
26658.924549,148.041188,6513.812290,-77222.426198
26658.927101,-5477.523971,7254.018232,-75383.797003
26658.929653,-3404.947333,8734.430116,-75383.797003
26658.932205,-19541.436869,3997.112087,-76915.987999
26658.934761,-1184.329507,5033.400406,-75230.577904
26658.937317,4293.194464,5921.647536,-73851.606007
26658.939873,2960.823768,6661.853478,-75996.673402
26658.942429,4441.235652,9622.677246,-75077.358804
26658.944985,-16136.489536,9622.677246,-75230.577904
26658.947541,-4885.359217,2664.741391,-75383.797003
26658.950097,-18801.230927,3997.112087,-75077.358804
26658.952653,11991.336260,7254.018232,-74617.701505
26658.955210,-2516.700203,7698.141797,-76762.768900
26658.957766,5477.523971,8882.471304,-76762.768900
26658.960322,-8142.265362,6513.812290,-76609.549800
26658.962878,-10955.047942,4145.153275,-75077.358804
26658.965434,-7402.059420,5921.647536,-74617.701505
26658.967990,-13471.748144,7105.977043,-75690.235202
26658.970546,-148.041188,7994.224174,-74770.920605
26658.973102,25018.960840,7254.018232,-74158.044206
26658.975658,-1924.535449,5625.565159,-75230.577904
26658.978214,21614.013506,3404.947333,-74311.263306
26658.980770,-7550.100608,4293.194464,-73238.729609
26658.983327,10658.965565,8734.430116,-75690.235202
26658.985883,-9030.512492,10066.800811,-76303.111601
26658.988439,16136.489536,6217.729913,-77375.645298
26658.990995,21317.931130,10362.883188,-74311.263306
26658.993551,8438.347739,1924.535449,-74924.139704
26658.996107,4737.318029,5477.523971,-73851.606007
26658.998663,6513.812290,1480.411884,-75537.016103
26659.001219,2960.823768,7698.141797,-77835.302597
26659.003775,8290.306550,10955.047942,-74464.482406
26659.006331,26203.290347,5033.400406,-75996.673402
26659.008887,-740.205942,4885.359217,-74924.139704
26659.011443,-592.164754,444.123565,-73698.386908
26659.014000,17616.901420,5625.565159,-73851.606007
26659.016556,1480.411884,11103.089130,-74770.920605
26659.019112,-5033.400406,7402.059420,-76456.330700
26659.021668,-2960.823768,8734.430116,-74770.920605
26659.024224,-21021.848753,11399.171507,-74924.139704
26659.026780,-7846.182985,3849.070898,-74770.920605
26659.029336,-1184.329507,5477.523971,-74158.044206
26659.031892,7994.224174,6217.729913,-74311.263306
26659.034448,3552.988522,5033.400406,-75996.673402
26659.037008,148.041188,9918.759623,-75230.577904
26659.039568,-13027.624579,9770.718434,-74770.920605
26659.042127,-12879.583391,3108.864956,-75077.358804
26659.044687,-592.164754,7402.059420,-73391.948708
26659.047247,-1036.288319,5181.441594,-73851.606007
26659.049807,5625.565159,9178.553681,-74464.482406
26659.052366,-3849.070898,6661.853478,-74004.825107
26659.054926,-12731.542202,4737.318029,-76149.892501
26659.057486,-5921.647536,4737.318029,-74924.139704
26659.060046,-12731.542202,6513.812290,-74924.139704
26659.062605,-10955.047942,6661.853478,-77222.426198
26659.065165,13767.830521,6217.729913,-75843.454302
26659.067725,37602.461854,13915.871710,-74464.482406
26659.070285,4885.359217,4737.318029,-75537.016103
26659.072844,16728.654289,7105.977043,-72166.195912
26659.075404,-3701.029710,1036.288319,-75383.797003
26659.077964,-22354.219448,11695.253884,-76915.987999
26659.080524,16580.613101,8586.388927,-76303.111601
26659.083083,17912.983796,4293.194464,-76609.549800
26659.085643,11399.171507,9178.553681,-74158.044206
26659.088203,11251.130318,296.082377,-74158.044206
26659.090763,3997.112087,6217.729913,-73545.167808
26659.093322,4589.276840,3997.112087,-76456.330700
26659.095882,-6957.935855,9474.636058,-77528.864398
26659.098442,31828.855506,6513.812290,-76609.549800
26659.101002,3108.864956,5921.647536,-75537.016103
26659.103561,2072.576638,2516.700203,-74617.701505
26659.106121,16284.530724,4589.276840,-74770.920605
26659.108681,0.000000,11547.212695,-73238.729609
26659.111241,3256.906145,3256.906145,-77375.645298
26659.113800,-9770.718434,10214.842000,-74617.701505
26659.116360,-2812.782580,6365.771101,-75843.454302
26659.118920,-15988.448347,5329.482782,-76456.330700
26659.121480,3404.947333,4293.194464,-73698.386908
26659.124039,-296.082377,5625.565159,-73851.606007
26659.126599,5921.647536,5625.565159,-76149.892501
26659.129159,-296.082377,5625.565159,-78601.398095
26659.131719,-9770.718434,8438.347739,-76303.111601
26659.134278,-15100.201217,6365.771101,-75077.358804
26659.136838,-4589.276840,2812.782580,-75383.797003
26659.139399,1480.411884,9622.677246,-73851.606007
26659.141962,1628.453072,5033.400406,-73545.167808
26659.144525,-1036.288319,12583.501014,-74464.482406
26659.147088,-10214.842000,4589.276840,-75230.577904
26659.149651,-7105.977043,4737.318029,-74617.701505
26659.152214,-13027.624579,7402.059420,-72779.072310
26659.154777,-12287.418637,5033.400406,-76456.330700
26659.157341,-740.205942,8438.347739,-74311.263306
26659.159904,40415.244433,10807.006753,-75996.673402
26659.162467,-1184.329507,7254.018232,-77682.083497
26659.165030,28719.990550,4737.318029,-74464.482406
26659.167593,-6809.894666,4145.153275,-75537.016103
26659.170156,6365.771101,4441.235652,-76915.987999
26659.172719,-11991.336260,10658.965565,-75843.454302
26659.175282,16432.571912,2220.617826,-78907.836294
26659.177845,30348.443622,9918.759623,-75383.797003
26659.180408,-3849.070898,6069.688724,-73391.948708
