#time,accel_x,accel_y,accel_z
4771.082044,1480.411884,8586.388927,-75230.577904
4771.084722,9474.636058,5181.441594,-76915.987999
4771.087401,-148.041188,7550.100608,-74311.263306
4771.090079,3108.864956,3701.029710,-75077.358804
4771.092757,5033.400406,7550.100608,-74770.920605
4771.095435,-7846.182985,9326.594869,-75077.358804
4771.098113,6957.935855,6809.894666,-75537.016103
4771.100791,-6513.812290,7550.100608,-75383.797003
4771.103469,7550.100608,3552.988522,-75077.358804
4771.106147,-11103.089130,7698.141797,-74464.482406
4771.108826,4293.194464,7254.018232,-75996.673402
4771.111504,-7105.977043,8290.306550,-75077.358804
4771.114182,7994.224174,6217.729913,-75690.235202
4771.116860,-6957.935855,6069.688724,-74617.701505
4771.119538,5033.400406,2220.617826,-77682.083497
4771.122216,-148.041188,7550.100608,-75383.797003
4771.124894,-1036.288319,2812.782580,-77835.302597
4771.127572,-5033.400406,13323.706956,-75230.577904
4771.130250,7254.018232,1480.411884,-76762.768900
4771.132929,-7698.141797,11103.089130,-73851.606007
4771.135607,10362.883188,1924.535449,-75690.235202
4771.138285,-14508.036463,6513.812290,-75843.454302
4771.140963,8586.388927,5033.400406,-75383.797003
4771.143641,-10510.924376,10510.924376,-72319.415011
4771.146319,2072.576638,5921.647536,-76915.987999
4771.148997,-3256.906145,6957.935855,-73851.606007
4771.151675,1036.288319,6365.771101,-76303.111601
4771.154353,-7994.224174,7846.182985,-73851.606007
4771.157022,-592.164754,5329.482782,-75690.235202
4771.159690,-6217.729913,8290.306550,-73698.386908
4771.162359,5773.606348,6069.688724,-75230.577904
4771.165027,-2368.659014,5625.565159,-75383.797003
4771.167696,2960.823768,5329.482782,-75690.235202
4771.170364,-6513.812290,6069.688724,-74924.139704
4771.173032,-888.247130,7550.100608,-75996.673402
4771.175701,-6661.853478,9030.512492,-74617.701505
4771.178369,-444.123565,5181.441594,-75230.577904
4771.181038,11103.089130,3108.864956,-74158.044206
4771.183706,0.000000,2960.823768,-74924.139704
4771.186374,9474.636058,12139.377449,-75077.358804
4771.189043,1332.370696,9622.677246,-77222.426198
4771.191711,5181.441594,2664.741391,-75077.358804
4771.194380,9030.512492,1184.329507,-73391.948708
4771.197048,-1480.411884,7105.977043,-75690.235202
4771.199717,9918.759623,10066.800811,-76609.549800
4771.202385,-444.123565,11991.336260,-74158.044206
4771.205053,8438.347739,3404.947333,-75537.016103
4771.207722,-740.205942,4737.318029,-74158.044206
4771.210390,12583.501014,6217.729913,-74311.263306
4771.213059,-2072.576638,8586.388927,-74924.139704
4771.215727,11695.253884,8882.471304,-75996.673402
4771.218395,-3256.906145,5773.606348,-75077.358804
4771.221064,8734.430116,3404.947333,-74617.701505
4771.223732,1776.494261,9178.553681,-71859.757712
4771.226401,7402.059420,2516.700203,-76149.892501
4771.229069,5477.523971,5773.606348,-75690.235202
4771.231738,148.041188,7698.141797,-75843.454302
4771.234406,2960.823768,3552.988522,-75843.454302
4771.237074,8142.265362,9326.594869,-75383.797003
4771.239743,0.000000,6513.812290,-74004.825107
4771.242411,9030.512492,2516.700203,-75843.454302
4771.245080,2368.659014,8438.347739,-75383.797003
4771.247748,11547.212695,4293.194464,-77375.645298
4771.250416,-2664.741391,9622.677246,-74770.920605
4771.253085,8586.388927,1480.411884,-75996.673402
4771.255753,2812.782580,9030.512492,-74311.263306
4771.258422,9178.553681,5033.400406,-76456.330700
4771.261090,1480.411884,8586.388927,-74158.044206
4771.263749,7994.224174,6513.812290,-74924.139704
4771.266407,3404.947333,7550.100608,-74464.482406
4771.269066,3849.070898,4145.153275,-74770.920605
4771.271725,-148.041188,5329.482782,-74617.701505
4771.274383,9030.512492,7994.224174,-75230.577904
4771.277042,11103.089130,7254.018232,-75537.016103
4771.279701,6069.688724,10066.800811,-73698.386908
4771.282359,5477.523971,1628.453072,-75843.454302
4771.285018,-6957.935855,1924.535449,-74770.920605
4771.287676,-3256.906145,7550.100608,-75843.454302
4771.290335,-7698.141797,12731.542202,-76609.549800
4771.292994,9622.677246,6809.894666,-76915.987999
4771.295652,-2664.741391,2072.576638,-73085.510509
4771.298311,6069.688724,2220.617826,-75077.358804
4771.300969,-8586.388927,11103.089130,-75690.235202
4771.303628,2072.576638,9326.594869,-76762.768900
4771.306287,-296.082377,9474.636058,-74004.825107
4771.308945,-2960.823768,2220.617826,-75383.797003
4771.311604,3997.112087,4441.235652,-75077.358804
4771.314263,-6365.771101,5921.647536,-75383.797003
4771.316921,2812.782580,10362.883188,-75383.797003
4771.319580,-6809.894666,6217.729913,-76609.549800
4771.322238,5181.441594,6069.688724,-75996.673402
4771.324897,-888.247130,7402.059420,-73085.510509
4771.327556,-148.041188,4885.359217,-75690.235202
4771.330214,740.205942,5181.441594,-75077.358804
4771.332873,-8142.265362,5477.523971,-75690.235202
4771.335532,-296.082377,7994.224174,-74924.139704
4771.338190,-1036.288319,9030.512492,-74617.701505
4771.340849,1628.453072,3701.029710,-75843.454302
4771.343507,-1924.535449,4441.235652,-74770.920605
4771.346166,-3552.988522,6809.894666,-73698.386908
4771.348825,-1628.453072,5329.482782,-76303.111601
4771.351483,-1628.453072,8586.388927,-75230.577904
4771.354142,-2960.823768,6661.853478,-74617.701505
4771.356800,-888.247130,6513.812290,-74617.701505
4771.359459,-1480.411884,5921.647536,-74770.920605
4771.362118,4441.235652,7698.141797,-75690.235202
4771.364776,-6809.894666,6957.935855,-75690.235202
4771.367435,3256.906145,6217.729913,-75537.016103
4771.370082,1332.370696,5181.441594,-74617.701505
4771.372729,-4589.276840,6365.771101,-75077.358804
4771.375376,444.123565,8438.347739,-75843.454302
4771.378023,-6957.935855,8586.388927,-75537.016103
4771.380670,740.205942,5329.482782,-75230.577904
4771.383317,3701.029710,3552.988522,-73391.948708
4771.385964,3997.112087,4145.153275,-74924.139704
4771.388611,7550.100608,13767.830521,-76149.892501
4771.391258,5477.523971,9918.759623,-75996.673402
4771.393905,4293.194464,2664.741391,-74311.263306
4771.396552,9622.677246,888.247130,-73085.510509
4771.399199,-3404.947333,6069.688724,-74770.920605
4771.401846,8734.430116,11251.130318,-76609.549800
4771.404493,148.041188,10510.924376,-75077.358804
4771.407140,11991.336260,3849.070898,-74924.139704
4771.409787,1628.453072,1924.535449,-74770.920605
4771.412434,9770.718434,6513.812290,-74770.920605
4771.415081,1924.535449,8734.430116,-75537.016103
4771.417728,4293.194464,7698.141797,-76303.111601
4771.420375,3108.864956,7254.018232,-76456.330700
4771.423022,3849.070898,2664.741391,-75383.797003
4771.425669,4441.235652,6365.771101,-75537.016103
4771.428316,6217.729913,3404.947333,-74924.139704
4771.430963,5033.400406,7254.018232,-75077.358804
4771.433610,0.000000,7994.224174,-74158.044206
4771.436257,6365.771101,5181.441594,-76303.111601
4771.438904,2220.617826,11103.089130,-75690.235202
4771.441551,7994.224174,3997.112087,-73851.606007
4771.444198,3404.947333,7846.182985,-73238.729609
4771.446845,6217.729913,11251.130318,-72779.072310
4771.449492,4737.318029,5181.441594,-75537.016103
4771.452139,3108.864956,9030.512492,-74158.044206
4771.454786,6957.935855,3701.029710,-75077.358804
4771.457433,1036.288319,7402.059420,-75537.016103
4771.460080,11991.336260,6513.812290,-74617.701505
4771.462727,-888.247130,8438.347739,-73698.386908
4771.465374,13915.871710,5181.441594,-75077.358804
4771.468021,-4145.153275,6661.853478,-75230.577904
4771.470668,5033.400406,5033.400406,-75230.577904
4771.473315,1036.288319,8734.430116,-74924.139704
4771.475949,15248.242405,8438.347739,-75537.016103
4771.478586,2368.659014,5033.400406,-75230.577904
4771.481223,4441.235652,3108.864956,-74158.044206
4771.483859,-6513.812290,4145.153275,-74617.701505
4771.486496,-7402.059420,10807.006753,-76303.111601
4771.489132,-2664.741391,11547.212695,-76303.111601
4771.491769,6365.771101,3108.864956,-74311.263306
4771.494406,-3552.988522,2220.617826,-73851.606007
4771.497042,7402.059420,5625.565159,-75690.235202
4771.499679,-12879.583391,10362.883188,-76149.892501
4771.502315,6217.729913,7846.182985,-76609.549800
4771.504952,-7402.059420,7105.977043,-73851.606007
4771.507589,3997.112087,2960.823768,-74770.920605
4771.510225,-592.164754,5773.606348,-74617.701505
4771.512862,-592.164754,7402.059420,-75537.016103
4771.515499,-5921.647536,9918.759623,-75537.016103
4771.518135,-2664.741391,6069.688724,-77835.302597
4771.520772,296.082377,4145.153275,-76609.549800
4771.523408,-296.082377,5625.565159,-75077.358804
4771.526045,-1480.411884,8882.471304,-74004.825107
4771.528682,5033.400406,3849.070898,-75383.797003
4771.531318,-6217.729913,9770.718434,-75537.016103
4771.533955,-6513.812290,4885.359217,-77222.426198
4771.536591,5773.606348,3849.070898,-76149.892501
4771.539228,-4145.153275,9622.677246,-73238.729609
4771.541865,4441.235652,3701.029710,-76609.549800
4771.544501,-6365.771101,9326.594869,-76456.330700
4771.547138,-1036.288319,5181.441594,-76303.111601
4771.549775,-5329.482782,9030.512492,-74464.482406
4771.552411,-1776.494261,4737.318029,-76149.892501
4771.555048,-1776.494261,8438.347739,-74924.139704
4771.557684,740.205942,4885.359217,-75690.235202
4771.560321,148.041188,8438.347739,-74770.920605
4771.562958,4441.235652,5181.441594,-75690.235202
4771.565594,-5477.523971,6809.894666,-75383.797003
4771.568231,-148.041188,7254.018232,-75230.577904
4771.570867,-8586.388927,7698.141797,-75383.797003
4771.573504,3108.864956,8438.347739,-75383.797003
4771.576141,1332.370696,1628.453072,-75077.358804
4771.578777,4885.359217,2812.782580,-74004.825107
4771.581414,5033.400406,11843.295072,-75383.797003
4771.584051,3701.029710,13323.706956,-77682.083497
4771.586687,6365.771101,4293.194464,-75383.797003
4771.589324,8438.347739,888.247130,-72625.853210
4771.591960,592.164754,3108.864956,-73698.386908
4771.594597,4145.153275,11695.253884,-75843.454302
4771.597234,0.000000,9474.636058,-75996.673402
4771.599870,7994.224174,6513.812290,-74464.482406
4771.602507,4589.276840,2368.659014,-74158.044206
4771.605143,6513.812290,6217.729913,-73545.167808
4771.607780,6661.853478,7994.224174,-74770.920605
4771.610417,2516.700203,8290.306550,-75843.454302
4771.613053,2516.700203,8438.347739,-76762.768900
4771.615690,4293.194464,1332.370696,-75996.673402
4771.618327,5033.400406,5329.482782,-74617.701505
4771.620963,7105.977043,1480.411884,-77069.207099
4771.623588,2516.700203,10362.883188,-74158.044206
4771.626213,3701.029710,6513.812290,-75383.797003
4771.628838,3256.906145,8290.306550,-74770.920605
4771.631462,3997.112087,10214.842000,-73238.729609
4771.634087,5033.400406,1776.494261,-75230.577904
4771.636712,9326.594869,9474.636058,-73545.167808
4771.639337,7402.059420,5477.523971,-76149.892501
4771.641962,3849.070898,8586.388927,-74924.139704
4771.644587,7550.100608,7402.059420,-74924.139704
4771.647211,888.247130,6661.853478,-74770.920605
4771.649836,8586.388927,4589.276840,-75077.358804
4771.652461,-296.082377,9326.594869,-74004.825107
4771.655086,14063.912898,5625.565159,-74617.701505
4771.657711,-1776.494261,7254.018232,-74311.263306
4771.660336,5329.482782,5921.647536,-74770.920605
4771.662960,1776.494261,7698.141797,-75843.454302
4771.665585,14804.118840,8734.430116,-75537.016103
4771.668210,3997.112087,5921.647536,-75383.797003
4771.670835,5625.565159,2368.659014,-74311.263306
4771.673460,-8290.306550,2664.741391,-74311.263306
4771.676084,-7846.182985,10955.047942,-75383.797003
4771.678709,-1924.535449,11399.171507,-77069.207099
4771.681334,2220.617826,4145.153275,-75077.358804
4771.683959,1628.453072,3108.864956,-72012.976812
4771.686584,2072.576638,5181.441594,-74617.701505
4771.689209,-7698.141797,10510.924376,-76915.987999
4771.691833,296.082377,8734.430116,-75996.673402
4771.694458,-4293.194464,6217.729913,-74464.482406
4771.697083,2072.576638,2960.823768,-75077.358804
4771.699708,888.247130,6957.935855,-75077.358804
4771.702333,-3404.947333,6957.935855,-76149.892501
4771.704958,-4293.194464,8734.430116,-75690.235202
4771.707582,-1924.535449,4145.153275,-75690.235202
4771.710207,-1628.453072,7105.977043,-74004.825107
4771.712832,444.123565,3552.988522,-75230.577904
4771.715457,-2516.700203,8290.306550,-75077.358804
4771.718082,4441.235652,5329.482782,-74311.263306
4771.720706,-5773.606348,5477.523971,-75996.673402
4771.723331,-1184.329507,12879.583391,-74770.920605
4771.725956,-1776.494261,6957.935855,-74770.920605
4771.728572,-592.164754,2960.823768,-74464.482406
4771.731188,-1776.494261,10066.800811,-72319.415011
4771.733805,-4885.359217,5773.606348,-75537.016103
4771.736421,-1776.494261,9622.677246,-74464.482406
4771.739037,-3108.864956,5033.400406,-76303.111601
4771.741653,-444.123565,8290.306550,-75690.235202
4771.744269,-888.247130,5181.441594,-75690.235202
4771.746885,-1036.288319,5921.647536,-75230.577904
4771.749502,4293.194464,6809.894666,-75843.454302
4771.752118,-7550.100608,7254.018232,-75230.577904
4771.754734,1332.370696,8142.265362,-75996.673402
4771.757350,-9770.718434,8734.430116,-74924.139704
4771.759966,3701.029710,5625.565159,-75230.577904
4771.762582,888.247130,1776.494261,-75230.577904
4771.765199,4145.153275,2072.576638,-74004.825107
4771.767815,9326.594869,12139.377449,-75690.235202
4771.770431,3701.029710,11547.212695,-77835.302597
4771.773047,6513.812290,2664.741391,-75077.358804
4771.775663,8734.430116,0.000000,-72625.853210
4771.778279,-740.205942,3849.070898,-74311.263306
4771.780896,5773.606348,13027.624579,-76303.111601
4771.783512,-592.164754,8438.347739,-76149.892501
4771.786128,9326.594869,7846.182985,-74617.701505
4771.788744,6069.688724,2812.782580,-74770.920605
4771.791360,5329.482782,4885.359217,-75383.797003
4771.793976,6513.812290,10362.883188,-75383.797003
4771.796593,-148.041188,7105.977043,-76149.892501
4771.799209,5033.400406,7846.182985,-75996.673402
4771.801825,4145.153275,3701.029710,-76149.892501
4771.804441,9030.512492,8586.388927,-74158.044206
4771.807057,6513.812290,2368.659014,-75537.016103
4771.809673,-3849.070898,7402.059420,-74770.920605
4771.812290,7994.224174,7105.977043,-75383.797003
4771.814906,2072.576638,9326.594869,-73851.606007
4771.817522,9030.512492,5181.441594,-75843.454302
4771.820138,1628.453072,9770.718434,-72472.634111
4771.822754,9474.636058,2220.617826,-73851.606007
4771.825370,1628.453072,8290.306550,-73698.386908
4771.827987,11399.171507,6069.688724,-76456.330700
4771.830603,-888.247130,5773.606348,-75537.016103
4771.833212,9918.759623,5921.647536,-74617.701505
4771.835821,3701.029710,7254.018232,-74617.701505
4771.838430,7698.141797,4145.153275,-75996.673402
4771.841040,1480.411884,7254.018232,-74311.263306
4771.843649,4145.153275,6513.812290,-75230.577904
4771.846258,1480.411884,7698.141797,-75690.235202
4771.848867,14063.912898,7698.141797,-75077.358804
4771.851477,3256.906145,2516.700203,-75383.797003
4771.854086,-444.123565,2072.576638,-74924.139704
4771.856695,-9770.718434,6809.894666,-74158.044206
4771.859304,-5625.565159,12287.418637,-76303.111601
4771.861914,1036.288319,9474.636058,-76456.330700
4771.864523,2220.617826,3108.864956,-73545.167808
4771.867132,1036.288319,1480.411884,-72932.291410
4771.869741,3256.906145,7698.141797,-75383.797003
4771.872351,-6513.812290,10214.842000,-77988.521696
4771.874960,2664.741391,7994.224174,-75843.454302
4771.877569,-2664.741391,3404.947333,-74770.920605
4771.880178,2072.576638,4441.235652,-73545.167808
4771.882788,-1480.411884,5625.565159,-74617.701505
4771.885397,-6217.729913,9474.636058,-76149.892501
4771.888006,740.205942,7846.182985,-77835.302597
4771.890615,-5329.482782,5329.482782,-76149.892501
4771.893225,5181.441594,5181.441594,-74311.263306
4771.895834,2072.576638,12435.459826,-72319.415011
4771.898443,592.164754,2516.700203,-75230.577904
4771.901052,-1628.453072,6217.729913,-74924.139704
4771.903662,-3256.906145,7105.977043,-75537.016103
4771.906271,-2072.576638,5921.647536,-77222.426198
4771.908880,1036.288319,8734.430116,-73085.510509
4771.911489,-4145.153275,6513.812290,-72625.853210
4771.914099,-1480.411884,5033.400406,-76303.111601
4771.916708,-7846.182985,7994.224174,-74311.263306
4771.919317,-592.164754,7698.141797,-75996.673402
4771.921926,-5625.565159,7550.100608,-75996.673402
4771.924535,3701.029710,5181.441594,-75843.454302
4771.927145,-592.164754,6069.688724,-74770.920605
4771.929754,5477.523971,5921.647536,-75690.235202
4771.932363,-9326.594869,5921.647536,-75690.235202
4771.934972,444.123565,8438.347739,-75230.577904
4771.937577,-1628.453072,9178.553681,-75383.797003
4771.940181,-1036.288319,2072.576638,-75383.797003
4771.942785,8586.388927,3701.029710,-73698.386908
4771.945389,888.247130,5329.482782,-75230.577904
4771.947994,11547.212695,13915.871710,-76303.111601
4771.950598,1924.535449,8882.471304,-76609.549800
4771.953202,9918.759623,1332.370696,-74924.139704
4771.955806,2812.782580,2220.617826,-72779.072310
4771.958411,5181.441594,7550.100608,-76303.111601
4771.961015,2812.782580,10510.924376,-76762.768900
4771.963619,4441.235652,9918.759623,-74311.263306
4771.966223,9030.512492,3108.864956,-75230.577904
4771.968828,3701.029710,3256.906145,-74617.701505
4771.971432,7105.977043,5033.400406,-74464.482406
4771.974036,5181.441594,9326.594869,-74311.263306
4771.976640,888.247130,6365.771101,-76609.549800
4771.979245,1332.370696,6365.771101,-76303.111601
4771.981849,8734.430116,7550.100608,-74770.920605
4771.984453,4589.276840,2516.700203,-74770.920605
4771.987057,3701.029710,7698.141797,-75996.673402
4771.989662,3256.906145,6661.853478,-74004.825107
4771.992266,2812.782580,8290.306550,-74158.044206
4771.994870,8734.430116,6661.853478,-75843.454302
4771.997474,1924.535449,7994.224174,-75690.235202
4772.000079,9178.553681,5477.523971,-72779.072310
4772.002683,2664.741391,7550.100608,-74004.825107
4772.005287,8142.265362,6217.729913,-77069.207099
4772.007891,1924.535449,8142.265362,-75843.454302
4772.010496,7846.182985,7402.059420,-74924.139704
4772.013100,7254.018232,3997.112087,-75383.797003
4772.015704,3997.112087,5625.565159,-74158.044206
4772.018308,1480.411884,5033.400406,-74158.044206
4772.020913,4293.194464,9622.677246,-75690.235202
4772.023517,9918.759623,7698.141797,-75383.797003
4772.026121,8142.265362,8882.471304,-74311.263306
4772.028725,3404.947333,2072.576638,-74617.701505
4772.031329,-4441.235652,2664.741391,-74158.044206
4772.033934,-9326.594869,7846.182985,-75230.577904
4772.036538,-3404.947333,12139.377449,-77069.207099
4772.039142,1480.411884,6513.812290,-76303.111601
4772.041740,888.247130,2072.576638,-73545.167808
4772.044338,1036.288319,3701.029710,-74770.920605
4772.046936,-4589.276840,11103.089130,-75383.797003
4772.049534,-1036.288319,9622.677246,-76456.330700
4772.052132,-3552.988522,7254.018232,-74617.701505
4772.054729,2516.700203,4145.153275,-74617.701505
4772.057327,-1776.494261,4293.194464,-75077.358804
4772.059925,740.205942,6809.894666,-74617.701505
4772.062523,-5773.606348,8882.471304,-76609.549800
4772.065121,-1776.494261,3997.112087,-77988.521696
4772.067719,-5033.400406,8142.265362,-75077.358804
4772.070317,5921.647536,9178.553681,-74158.044206
4772.072914,-740.205942,2220.617826,-75537.016103
4772.075512,-1628.453072,6513.812290,-74770.920605
4772.078110,-148.041188,11991.336260,-72932.291410
4772.080708,-1480.411884,3849.070898,-75996.673402
4772.083306,-592.164754,7402.059420,-73545.167808
4772.085904,-3849.070898,6513.812290,-72166.195912
4772.088502,-2220.617826,4737.318029,-74770.920605
4772.091099,-2516.700203,7402.059420,-74770.920605
4772.093697,-2072.576638,7846.182985,-75996.673402
4772.096295,-1332.370696,7402.059420,-75996.673402
4772.098893,-1480.411884,5033.400406,-75230.577904
4772.101491,7254.018232,6365.771101,-74311.263306
4772.104089,-7402.059420,5625.565159,-75996.673402
4772.106687,3256.906145,9474.636058,-75690.235202
4772.109284,-10658.965565,6513.812290,-75537.016103
4772.111882,4293.194464,7550.100608,-75230.577904
4772.114480,-1036.288319,1480.411884,-75383.797003
4772.117078,5329.482782,1776.494261,-74158.044206
4772.119676,4441.235652,11103.089130,-74004.825107
4772.122274,7254.018232,13619.789333,-76609.549800
4772.124872,7698.141797,4145.153275,-74770.920605
4772.127469,8290.306550,1480.411884,-72319.415011
4772.130067,-888.247130,4441.235652,-74004.825107
4772.132665,5329.482782,10807.006753,-76456.330700
4772.135263,592.164754,7846.182985,-76149.892501
4772.137861,10362.883188,9178.553681,-74004.825107
4772.140459,7550.100608,1924.535449,-75690.235202
4772.143057,5033.400406,6365.771101,-74311.263306
4772.145649,6661.853478,8586.388927,-74617.701505
4772.148242,1924.535449,6809.894666,-78754.617194
4772.150835,5329.482782,8142.265362,-75996.673402
4772.153427,3108.864956,7550.100608,-74617.701505
4772.156020,11991.336260,4145.153275,-75230.577904
4772.158613,-1184.329507,6365.771101,-77222.426198
4772.161205,9030.512492,7698.141797,-75537.016103
4772.163798,1924.535449,740.205942,-75996.673402
4772.166391,3108.864956,7105.977043,-76303.111601
4772.168983,11695.253884,9918.759623,-75383.797003
4772.171576,3552.988522,1776.494261,-74158.044206
4772.174169,9178.553681,7698.141797,-72472.634111
4772.176761,3256.906145,3997.112087,-75077.358804
4772.179354,1036.288319,8734.430116,-75077.358804
4772.181947,11695.253884,7846.182985,-75077.358804
4772.184539,2664.741391,4441.235652,-75690.235202
4772.187132,10807.006753,6365.771101,-73698.386908
4772.189725,296.082377,5329.482782,-74617.701505
4772.192317,4293.194464,7550.100608,-75230.577904
4772.194910,12287.418637,9622.677246,-74770.920605
4772.197503,4589.276840,4737.318029,-76149.892501
4772.200095,2960.823768,3701.029710,-74464.482406
4772.202688,-6365.771101,3701.029710,-74464.482406
4772.205281,-7254.018232,11251.130318,-75537.016103
4772.207873,-3552.988522,10955.047942,-75843.454302
4772.210466,4737.318029,1924.535449,-74617.701505
4772.213059,-2368.659014,2072.576638,-73238.729609
4772.215651,3404.947333,6513.812290,-75537.016103
4772.218244,-12731.542202,10658.965565,-76609.549800
4772.220837,6217.729913,7994.224174,-74617.701505
4772.223429,-7994.224174,5181.441594,-73698.386908
4772.226022,6809.894666,3256.906145,-74924.139704
4772.228612,-5477.523971,6661.853478,-75537.016103
4772.231202,-1924.535449,6957.935855,-75996.673402
4772.233792,-6217.729913,9918.759623,-74617.701505
4772.236382,-3552.988522,4589.276840,-75077.358804
4772.238972,-3997.112087,10362.883188,-74158.044206
4772.241561,6069.688724,2516.700203,-75383.797003
4772.244151,2072.576638,9622.677246,-75996.673402
4772.246741,-8142.265362,5329.482782,-74617.701505
4772.249331,3849.070898,3552.988522,-76609.549800
4772.251921,-14211.954086,11399.171507,-76303.111601
4772.254511,7846.182985,888.247130,-77682.083497
4772.257101,-11991.336260,9622.677246,-74770.920605
4772.259691,4293.194464,3997.112087,-74464.482406
4772.262281,-7105.977043,10658.965565,-75230.577904
4772.264870,5033.400406,3404.947333,-75537.016103
4772.267460,-10362.883188,9622.677246,-73085.510509
4772.270050,9918.759623,3552.988522,-75996.673402
4772.272640,-8734.430116,6217.729913,-74311.263306
4772.275230,3997.112087,8438.347739,-75077.358804
4772.277820,-11547.212695,8882.471304,-74311.263306
4772.280410,3108.864956,6365.771101,-75383.797003
4772.283000,2664.741391,2516.700203,-74158.044206
4772.285589,2516.700203,1924.535449,-74158.044206
4772.288179,9326.594869,13323.706956,-74770.920605
4772.290769,3849.070898,10807.006753,-77682.083497
4772.293359,10658.965565,1924.535449,-74158.044206
4772.295949,3997.112087,2516.700203,-71859.757712
4772.298539,2072.576638,6661.853478,-75383.797003
4772.301129,3552.988522,10955.047942,-77375.645298
4772.303719,592.164754,7994.224174,-74770.920605
4772.306309,10066.800811,6957.935855,-74311.263306
4772.308898,9770.718434,2516.700203,-75843.454302
4772.311488,2368.659014,4145.153275,-75077.358804
4772.314078,4293.194464,7402.059420,-75230.577904
4772.316668,1628.453072,9326.594869,-74924.139704
4772.319258,-148.041188,7994.224174,-74617.701505
4772.321848,6069.688724,7105.977043,-73851.606007
4772.324438,8882.471304,2220.617826,-77222.426198
4772.327028,6661.853478,6365.771101,-74924.139704
4772.329618,3997.112087,10510.924376,-73391.948708
4772.332203,1924.535449,7550.100608,-74311.263306
4772.334789,12879.583391,4589.276840,-76149.892501
4772.337374,1776.494261,7846.182985,-73851.606007
4772.339960,11843.295072,4589.276840,-74464.482406
4772.342545,1480.411884,6217.729913,-74311.263306
4772.345131,10066.800811,6661.853478,-75996.673402
4772.347716,2812.782580,8438.347739,-74924.139704
4772.350302,4737.318029,6069.688724,-74617.701505
4772.352887,2220.617826,5033.400406,-74464.482406
4772.355473,8734.430116,8438.347739,-75230.577904
4772.358058,5033.400406,7550.100608,-74924.139704
4772.360644,12583.501014,9030.512492,-75077.358804
4772.363230,2960.823768,3404.947333,-74617.701505
4772.365815,-2516.700203,3108.864956,-74158.044206
4772.368401,-6661.853478,4885.359217,-74617.701505
4772.370986,-10362.883188,12139.377449,-75383.797003
4772.373572,3997.112087,10658.965565,-75843.454302
4772.376157,-1332.370696,2812.782580,-73698.386908
4772.378743,2072.576638,3997.112087,-73085.510509
4772.381328,-148.041188,7550.100608,-75537.016103
4772.383914,-11695.253884,10510.924376,-77069.207099
4772.386499,4737.318029,7402.059420,-75537.016103
4772.389085,-7254.018232,4145.153275,-75077.358804
4772.391670,7550.100608,6661.853478,-74924.139704
4772.394256,-7402.059420,5773.606348,-75077.358804
4772.396841,0.000000,8290.306550,-75230.577904
4772.399427,-9178.553681,6957.935855,-77069.207099
4772.402013,1628.453072,7994.224174,-75843.454302
4772.404598,-3256.906145,6217.729913,-73391.948708
4772.407184,6957.935855,5773.606348,-74617.701505
4772.409769,-1776.494261,9178.553681,-74464.482406
4772.412355,-5181.441594,6957.935855,-74158.044206
4772.414940,-1480.411884,9178.553681,-75077.358804
4772.417526,-8290.306550,5625.565159,-78448.178995
4772.420111,2516.700203,5329.482782,-75537.016103
4772.422697,-4737.318029,6217.729913,-74004.825107
4772.425282,3552.988522,6069.688724,-75230.577904
4772.427868,-3108.864956,5773.606348,-76303.111601
4772.430453,-3701.029710,6809.894666,-75383.797003
4772.433039,-2664.741391,7550.100608,-73698.386908
4772.435622,-5921.647536,5033.400406,-74770.920605
4772.438204,-148.041188,7698.141797,-74617.701505
4772.440787,-6365.771101,8882.471304,-75383.797003
4772.443370,1776.494261,6217.729913,-74924.139704
4772.445953,2220.617826,3552.988522,-74158.044206
4772.448535,5033.400406,2368.659014,-75077.358804
4772.451118,3256.906145,12731.542202,-76149.892501
4772.453701,9178.553681,9474.636058,-76609.549800
4772.456284,6069.688724,1036.288319,-74004.825107
4772.458866,9178.553681,2368.659014,-73238.729609
4772.461449,-1332.370696,6365.771101,-75690.235202
4772.464032,4293.194464,12287.418637,-77222.426198
4772.466615,-148.041188,7698.141797,-75383.797003
4772.469197,10807.006753,7550.100608,-74004.825107
4772.471780,7994.224174,1628.453072,-74770.920605
4772.474363,5181.441594,5477.523971,-75230.577904
4772.476946,8438.347739,7402.059420,-76915.987999
4772.479528,-3256.906145,9474.636058,-75077.358804
4772.482111,11547.212695,7105.977043,-75690.235202
4772.484694,-2960.823768,2368.659014,-75843.454302
4772.487277,11547.212695,7402.059420,-76762.768900
4772.489859,6069.688724,4589.276840,-75077.358804
4772.492442,3256.906145,7698.141797,-73545.167808
4772.495025,7402.059420,12731.542202,-74464.482406
4772.497608,888.247130,7698.141797,-77222.426198
4772.500190,6809.894666,5921.647536,-75996.673402
4772.502773,6957.935855,4885.359217,-74464.482406
4772.505356,9178.553681,6217.729913,-74158.044206
4772.507939,6957.935855,7550.100608,-74617.701505
4772.510521,2664.741391,6365.771101,-74617.701505
4772.513104,2220.617826,7254.018232,-75383.797003
4772.515687,6809.894666,6957.935855,-75383.797003
4772.518270,4441.235652,6217.729913,-75230.577904
4772.520852,15692.365970,10362.883188,-74004.825107
4772.523435,4145.153275,3552.988522,-76609.549800
4772.526018,444.123565,5477.523971,-74617.701505
4772.528601,-8142.265362,3552.988522,-74924.139704
4772.531183,-10955.047942,12287.418637,-75077.358804
4772.533766,-296.082377,11251.130318,-76915.987999
4772.536349,592.164754,1184.329507,-74617.701505
4772.538929,1776.494261,2072.576638,-72932.291410
4772.541509,-1776.494261,6809.894666,-75383.797003
4772.544088,-7402.059420,11399.171507,-77682.083497
4772.546668,-296.082377,8438.347739,-75537.016103
4772.549248,-3256.906145,3849.070898,-74158.044206
4772.551828,4885.359217,5033.400406,-73238.729609
4772.554407,148.041188,5181.441594,-75383.797003
4772.556987,4589.276840,10214.842000,-75230.577904
4772.559567,-9030.512492,7994.224174,-76609.549800
4772.562146,-444.123565,9770.718434,-75230.577904
4772.564726,-4293.194464,1036.288319,-75230.577904
4772.567306,8142.265362,8142.265362,-74004.825107
4772.569885,-2220.617826,5181.441594,-74004.825107
4772.572465,-444.123565,6365.771101,-76456.330700
4772.575045,-7846.182985,5033.400406,-75996.673402
4772.577625,-6661.853478,3997.112087,-77222.426198
4772.580204,-2072.576638,6513.812290,-75996.673402
4772.582784,296.082377,5033.400406,-75077.358804
4772.585364,592.164754,9030.512492,-74004.825107
4772.587943,-2220.617826,4293.194464,-76609.549800
4772.590523,2516.700203,10066.800811,-76149.892501
4772.593103,-7846.182985,3849.070898,-74770.920605
4772.595682,-1776.494261,8438.347739,-75383.797003
4772.598262,-4737.318029,7105.977043,-75996.673402
4772.600842,1628.453072,6809.894666,-75077.358804
4772.603422,4145.153275,2516.700203,-74311.263306
4772.606001,3404.947333,1776.494261,-74004.825107
4772.608581,3404.947333,11991.336260,-74924.139704
4772.611161,5329.482782,12435.459826,-76149.892501
4772.613740,8882.471304,7846.182985,-75690.235202
4772.616320,9474.636058,-1036.288319,-74158.044206
4772.618900,4737.318029,5477.523971,-73391.948708
4772.621479,3404.947333,10807.006753,-75843.454302
4772.624059,1036.288319,9178.553681,-76915.987999
4772.626639,4441.235652,6957.935855,-75230.577904
4772.629219,7994.224174,3997.112087,-74311.263306
4772.631798,9918.759623,5033.400406,-73851.606007
4772.634378,5329.482782,5033.400406,-76456.330700
4772.636958,5181.441594,8290.306550,-76609.549800
4772.639537,2072.576638,7550.100608,-77069.207099
4772.642114,4441.235652,7698.141797,-75077.358804
4772.644690,6069.688724,6217.729913,-74158.044206
4772.647267,8438.347739,5921.647536,-75383.797003
4772.649843,9030.512492,4737.318029,-77069.207099
4772.652419,4589.276840,6365.771101,-74617.701505
4772.654996,592.164754,8734.430116,-72625.853210
4772.657572,6809.894666,7698.141797,-75690.235202
4772.660149,3997.112087,3997.112087,-76303.111601
4772.662725,11547.212695,8586.388927,-73851.606007
4772.665301,4441.235652,3108.864956,-75537.016103
4772.667878,4441.235652,9326.594869,-75383.797003
4772.670454,-888.247130,3108.864956,-75383.797003
4772.673031,7550.100608,9030.512492,-74617.701505
4772.675607,6365.771101,7846.182985,-75383.797003
4772.678183,14211.954086,8438.347739,-75383.797003
4772.680760,6513.812290,3849.070898,-74617.701505
4772.683336,-9474.636058,1036.288319,-75537.016103
4772.685912,-5033.400406,8290.306550,-75996.673402
4772.688489,-10510.924376,10066.800811,-76149.892501
4772.691065,4441.235652,9770.718434,-75383.797003
4772.693642,444.123565,1036.288319,-74464.482406
4772.696218,3404.947333,3849.070898,-72779.072310
4772.698794,888.247130,6661.853478,-75230.577904
4772.701371,-14508.036463,11991.336260,-76915.987999
4772.703947,5329.482782,6957.935855,-75996.673402
4772.706524,-11103.089130,1924.535449,-73391.948708
4772.709100,14508.036463,6069.688724,-74464.482406
4772.711676,-10214.842000,4737.318029,-75690.235202
4772.714253,5329.482782,8142.265362,-74924.139704
4772.716829,-12435.459826,8142.265362,-74464.482406
4772.719406,740.205942,7994.224174,-74158.044206
4772.721982,-5773.606348,1184.329507,-76609.549800
4772.724558,8290.306550,11843.295072,-74770.920605
4772.727135,-1480.411884,1924.535449,-74770.920605
4772.729711,-3552.988522,8882.471304,-75843.454302
4772.732288,-5921.647536,6809.894666,-75996.673402
4772.734864,-5329.482782,7846.182985,-77069.207099
4772.737440,2072.576638,4885.359217,-75690.235202
4772.740017,-3256.906145,5625.565159,-75843.454302
4772.742593,1332.370696,4293.194464,-76149.892501
4772.745167,10807.006753,5625.565159,-76762.768900
4772.747741,-15840.407159,7698.141797,-76456.330700
4772.750315,4145.153275,6513.812290,-76609.549800
4772.752889,-12879.583391,7402.059420,-75383.797003
4772.755463,8142.265362,6365.771101,-75383.797003
4772.758038,-3108.864956,3701.029710,-74004.825107
4772.760612,11251.130318,0.000000,-74617.701505
4772.763186,-1628.453072,11251.130318,-74311.263306
4772.765760,8290.306550,10807.006753,-76762.768900
4772.768334,5773.606348,6069.688724,-75077.358804
4772.770908,11695.253884,444.123565,-73545.167808
4772.773482,2516.700203,4737.318029,-73851.606007
4772.776056,6069.688724,9622.677246,-75843.454302
4772.778630,1332.370696,8586.388927,-76456.330700
4772.781204,5329.482782,7994.224174,-74617.701505
4772.783778,7846.182985,5477.523971,-74770.920605
4772.786352,7994.224174,5181.441594,-73391.948708
4772.788926,4293.194464,5773.606348,-74464.482406
4772.791500,888.247130,9178.553681,-74924.139704
4772.794074,4145.153275,4293.194464,-76609.549800
4772.796648,1924.535449,10510.924376,-72779.072310
4772.799223,13619.789333,8438.347739,-74004.825107
4772.801797,3849.070898,-148.041188,-75996.673402
4772.804371,592.164754,9622.677246,-74158.044206
4772.806945,6661.853478,5181.441594,-76762.768900
4772.809519,2220.617826,8142.265362,-76915.987999
4772.812093,12879.583391,6809.894666,-75690.235202
4772.814667,1480.411884,7105.977043,-74004.825107
4772.817241,11843.295072,5329.482782,-75383.797003
4772.819815,1776.494261,8734.430116,-74924.139704
4772.822389,1628.453072,5921.647536,-76915.987999
4772.824963,7254.018232,7105.977043,-74924.139704
4772.827537,5181.441594,7698.141797,-74924.139704
4772.830111,14359.995275,7698.141797,-74770.920605
4772.832685,4293.194464,3997.112087,-75230.577904
4772.835259,-2220.617826,3108.864956,-75077.358804
4772.837833,-6217.729913,7698.141797,-75077.358804
4772.840408,-10362.883188,10658.965565,-76456.330700
4772.842982,2072.576638,10066.800811,-75690.235202
4772.845556,2220.617826,1480.411884,-74158.044206
4772.848128,592.164754,4145.153275,-73851.606007
4772.850700,-888.247130,6217.729913,-75843.454302
4772.853273,-10510.924376,10066.800811,-77682.083497
4772.855845,3404.947333,8586.388927,-75843.454302
4772.858417,-7254.018232,3849.070898,-74311.263306
4772.860990,11547.212695,5033.400406,-75383.797003
4772.863562,-7550.100608,5477.523971,-76303.111601
4772.866134,1184.329507,7846.182985,-75843.454302
4772.868707,-7254.018232,11399.171507,-74617.701505
4772.871279,-4145.153275,5773.606348,-74464.482406
4772.873851,3701.029710,4293.194464,-75537.016103
4772.876424,-3108.864956,5477.523971,-75230.577904
4772.878996,-888.247130,7846.182985,-74617.701505
4772.881568,-1480.411884,4737.318029,-75383.797003
4772.884141,-7105.977043,9178.553681,-74004.825107
4772.886713,-1924.535449,7254.018232,-75537.016103
4772.889285,-6661.853478,6661.853478,-74617.701505
4772.891858,6365.771101,3552.988522,-75537.016103
4772.894430,-5329.482782,8142.265362,-74617.701505
4772.897002,6513.812290,5477.523971,-75383.797003
4772.899575,-8438.347739,7402.059420,-76303.111601
4772.902147,-5033.400406,7254.018232,-75690.235202
4772.904719,-2516.700203,8290.306550,-74770.920605
4772.907292,0.000000,4293.194464,-75537.016103
4772.909864,7550.100608,4737.318029,-74617.701505
4772.912436,888.247130,4737.318029,-73698.386908
4772.915009,10362.883188,12435.459826,-75996.673402
4772.917581,5181.441594,10066.800811,-76915.987999
4772.920153,9770.718434,-1332.370696,-74311.263306
4772.922726,3997.112087,3997.112087,-72319.415011
4772.925298,4293.194464,6217.729913,-76149.892501
4772.927870,3404.947333,11991.336260,-76762.768900
4772.930442,3849.070898,5625.565159,-75230.577904
4772.933015,8290.306550,7846.182985,-73391.948708
4772.935587,7994.224174,2516.700203,-74617.701505
4772.938159,7698.141797,5477.523971,-73851.606007
4772.940732,4885.359217,8734.430116,-76149.892501
4772.943304,2516.700203,9178.553681,-76149.892501
4772.945876,1776.494261,3108.864956,-75690.235202
4772.948449,3256.906145,9622.677246,-73238.729609
4772.951019,12139.377449,2368.659014,-75077.358804
4772.953589,-2812.782580,5773.606348,-76456.330700
4772.956158,13323.706956,5477.523971,-74311.263306
4772.958728,1036.288319,6661.853478,-73545.167808
4772.961298,11103.089130,10214.842000,-76303.111601
4772.963868,13027.624579,5329.482782,-75690.235202
4772.966438,3256.906145,5625.565159,-73238.729609
4772.969008,9178.553681,5921.647536,-73851.606007
4772.971578,-1776.494261,5773.606348,-76456.330700
4772.974148,8586.388927,7402.059420,-76303.111601
4772.976718,2812.782580,8586.388927,-74311.263306
4772.979287,13767.830521,7994.224174,-75843.454302
4772.981857,4441.235652,3552.988522,-74617.701505
4772.984427,-7698.141797,1184.329507,-74924.139704
4772.986997,-5477.523971,9030.512492,-74770.920605
4772.989567,-9030.512492,10066.800811,-77222.426198
4772.992137,296.082377,10214.842000,-75537.016103
4772.994707,4737.318029,1628.453072,-73391.948708
4772.997277,-2812.782580,2812.782580,-73545.167808
4772.999847,3256.906145,6661.853478,-75996.673402
4773.002417,-15544.324782,11251.130318,-76303.111601
4773.004986,7254.018232,8438.347739,-76762.768900
4773.007556,-11695.253884,3108.864956,-74617.701505
4773.010126,11991.336260,4441.235652,-73698.386908
4773.012696,-10955.047942,7698.141797,-72166.195912
4773.015266,1776.494261,5773.606348,-76303.111601
4773.017836,-7105.977043,12435.459826,-74617.701505
4773.020406,-1628.453072,3404.947333,-75230.577904
4773.022976,3997.112087,8734.430116,-74617.701505
4773.025546,-13175.665768,9770.718434,-73851.606007
4773.028115,14656.077652,2220.617826,-76303.111601
4773.030685,-14804.118840,10807.006753,-74158.044206
4773.033255,5033.400406,3701.029710,-75843.454302
4773.035825,-13767.830521,10807.006753,-74770.920605
4773.038395,8142.265362,2960.823768,-75690.235202
4773.040965,-7846.182985,8438.347739,-74158.044206
4773.043535,4885.359217,4145.153275,-74617.701505
4773.046105,-6069.688724,9326.594869,-75077.358804
4773.048675,-3997.112087,7254.018232,-76303.111601
4773.051245,-5921.647536,10658.965565,-74004.825107
4773.053813,-1184.329507,4737.318029,-74924.139704
4773.056382,4885.359217,3552.988522,-74617.701505
4773.058950,3552.988522,1924.535449,-74464.482406
4773.061519,7550.100608,11991.336260,-75996.673402
4773.064088,5773.606348,11695.253884,-77222.426198
4773.066656,8882.471304,2516.700203,-74770.920605
4773.069225,7994.224174,1332.370696,-72472.634111
4773.071793,-148.041188,5329.482782,-74770.920605
4773.074362,6957.935855,12435.459826,-76456.330700
4773.076931,740.205942,7254.018232,-75996.673402
4773.079499,9474.636058,6809.894666,-74158.044206
4773.082068,6513.812290,4589.276840,-74158.044206
4773.084637,7846.182985,4589.276840,-73391.948708
4773.087205,2516.700203,8438.347739,-74158.044206
4773.089774,6957.935855,9474.636058,-74924.139704
4773.092342,296.082377,5773.606348,-76149.892501
4773.094911,4441.235652,8438.347739,-75077.358804
4773.097480,9474.636058,3997.112087,-75383.797003
4773.100048,4441.235652,6069.688724,-75996.673402
4773.102617,9030.512492,5773.606348,-75537.016103
4773.105185,5181.441594,5773.606348,-75383.797003
4773.107754,7698.141797,8586.388927,-75690.235202
4773.110323,13175.665768,5181.441594,-75843.454302
4773.112891,444.123565,3256.906145,-73545.167808
4773.115460,10658.965565,6365.771101,-73545.167808
4773.118029,-1628.453072,6513.812290,-75230.577904
4773.120597,7994.224174,7254.018232,-76303.111601
4773.123166,7254.018232,9622.677246,-75077.358804
4773.125734,10658.965565,8142.265362,-74311.263306
4773.128303,6365.771101,2368.659014,-74311.263306
4773.130872,-11251.130318,1924.535449,-74924.139704
4773.133440,-6661.853478,10066.800811,-74924.139704
4773.136009,-4737.318029,11103.089130,-77069.207099
4773.138577,2220.617826,6069.688724,-76303.111601
4773.141146,1924.535449,1480.411884,-73085.510509
4773.143715,740.205942,3552.988522,-74464.482406
4773.146283,-4293.194464,10066.800811,-75690.235202
4773.148852,-7550.100608,10807.006753,-76149.892501
4773.151421,-1924.535449,6809.894666,-75077.358804
4773.153989,-148.041188,4293.194464,-74158.044206
4773.156556,888.247130,4737.318029,-74004.825107
4773.159122,-2516.700203,7698.141797,-75230.577904
4773.161689,-1036.288319,5329.482782,-76456.330700
4773.164255,-5033.400406,6513.812290,-75996.673402
4773.166822,-888.247130,6069.688724,-75383.797003
4773.169388,740.205942,5033.400406,-74311.263306
4773.171955,-592.164754,6069.688724,-75537.016103
4773.174521,-3552.988522,7402.059420,-74617.701505
4773.177088,-7402.059420,4885.359217,-76456.330700
4773.179654,-3849.070898,8734.430116,-76303.111601
4773.182221,-1924.535449,6069.688724,-77528.864398
4773.184787,-888.247130,7105.977043,-73698.386908
4773.187354,2072.576638,3849.070898,-74617.701505
4773.189920,-4737.318029,6957.935855,-74924.139704
4773.192487,-4441.235652,8142.265362,-74924.139704
4773.195053,-5477.523971,8290.306550,-75383.797003
4773.197620,-2664.741391,6069.688724,-75383.797003
4773.200186,4293.194464,2368.659014,-74464.482406
4773.202753,6069.688724,1036.288319,-75230.577904
4773.205319,6217.729913,11991.336260,-75230.577904
4773.207886,6661.853478,12879.583391,-77222.426198
4773.210452,8882.471304,5329.482782,-75537.016103
4773.213019,8734.430116,1924.535449,-72779.072310
4773.215585,3108.864956,5329.482782,-74158.044206
4773.218152,3108.864956,11695.253884,-76915.987999
4773.220719,3849.070898,7994.224174,-76456.330700
4773.223285,9030.512492,5773.606348,-74311.263306
4773.225852,8882.471304,4589.276840,-74924.139704
4773.228418,7105.977043,4589.276840,-75537.016103
4773.230985,5921.647536,7846.182985,-74770.920605
4773.233551,3701.029710,9918.759623,-75537.016103
4773.236118,5033.400406,3552.988522,-77222.426198
4773.238684,2368.659014,6513.812290,-75996.673402
4773.241251,4293.194464,7846.182985,-73851.606007
4773.243817,13323.706956,6513.812290,-75383.797003
4773.246384,-740.205942,5625.565159,-76609.549800
4773.248950,13027.624579,8438.347739,-76609.549800
4773.251517,-592.164754,7402.059420,-75843.454302
4773.254083,14508.036463,4589.276840,-75843.454302
4773.256650,-888.247130,6661.853478,-74004.825107
4773.259215,7550.100608,3552.988522,-75077.358804
4773.261780,2664.741391,7550.100608,-74924.139704
4773.264345,8882.471304,8290.306550,-75230.577904
4773.266910,9030.512492,9474.636058,-74311.263306
4773.269475,7846.182985,2664.741391,-76303.111601
4773.272040,-6069.688724,3108.864956,-73085.510509
4773.274605,-5329.482782,5921.647536,-74004.825107
4773.277170,-11991.336260,11251.130318,-76303.111601
4773.279735,2220.617826,11695.253884,-76456.330700
4773.282300,888.247130,1776.494261,-74617.701505
4773.284865,3404.947333,3701.029710,-73851.606007
4773.287430,-2072.576638,6661.853478,-76149.892501
4773.289996,-8438.347739,10807.006753,-76762.768900
4773.292561,1332.370696,6513.812290,-76149.892501
4773.295126,-7402.059420,3552.988522,-75383.797003
4773.297691,8734.430116,6661.853478,-74158.044206
4773.300256,-6513.812290,3552.988522,-75230.577904
4773.302821,-1776.494261,9326.594869,-74464.482406
4773.305386,-9030.512492,10510.924376,-75077.358804
4773.307951,444.123565,6217.729913,-75383.797003
4773.310516,-444.123565,7105.977043,-74158.044206
4773.313081,-1036.288319,6365.771101,-75537.016103
4773.315646,-1924.535449,4293.194464,-76609.549800
4773.318211,-2960.823768,5773.606348,-74004.825107
4773.320776,-5773.606348,8290.306550,-75690.235202
4773.323341,-4737.318029,5477.523971,-77222.426198
4773.325906,-2960.823768,7846.182985,-75996.673402
4773.328471,-740.205942,4293.194464,-75230.577904
4773.331036,-888.247130,5921.647536,-75690.235202
4773.333602,-5329.482782,8290.306550,-75537.016103
4773.336167,-5773.606348,9326.594869,-75383.797003
4773.338732,-2220.617826,7105.977043,-75077.358804
4773.341297,2368.659014,1924.535449,-74617.701505
4773.343862,4589.276840,888.247130,-74464.482406
4773.346427,9918.759623,11991.336260,-74770.920605
4773.348992,4589.276840,11843.295072,-75843.454302
4773.351557,11103.089130,1628.453072,-75996.673402
4773.354122,4293.194464,2220.617826,-72779.072310
4773.356687,5181.441594,5625.565159,-75077.358804
4773.359252,888.247130,11695.253884,-76609.549800
4773.361817,3552.988522,8734.430116,-75843.454302
4773.364381,8586.388927,6661.853478,-73851.606007
4773.366945,8290.306550,3256.906145,-74924.139704
4773.369510,6217.729913,6513.812290,-73698.386908
4773.372074,4737.318029,6661.853478,-72319.415011
4773.374638,2368.659014,12435.459826,-73085.510509
4773.377203,2368.659014,5329.482782,-76303.111601
4773.379767,6809.894666,4589.276840,-74311.263306
4773.382332,2368.659014,6957.935855,-75537.016103
4773.384896,12287.418637,7402.059420,-73698.386908
4773.387460,-740.205942,7105.977043,-74924.139704
4773.390025,10658.965565,6957.935855,-75230.577904
4773.392589,3404.947333,7846.182985,-76149.892501
4773.395154,5181.441594,6809.894666,-75843.454302
4773.397718,8438.347739,4885.359217,-74770.920605
4773.400282,296.082377,4885.359217,-75077.358804
4773.402847,8586.388927,7254.018232,-74617.701505
4773.405411,8734.430116,9770.718434,-75383.797003
4773.407975,9326.594869,8586.388927,-74004.825107
4773.410540,1924.535449,2812.782580,-74158.044206
4773.413104,-8290.306550,2072.576638,-75230.577904
4773.415669,-8142.265362,10955.047942,-74770.920605
4773.418233,-4589.276840,10807.006753,-76915.987999
4773.420797,740.205942,5329.482782,-76149.892501
4773.423362,1184.329507,2220.617826,-73545.167808
4773.425926,444.123565,3849.070898,-74617.701505
4773.428491,-3108.864956,10214.842000,-75690.235202
4773.431055,-8882.471304,8734.430116,-76303.111601
4773.433619,592.164754,5773.606348,-74617.701505
4773.436184,-2960.823768,2516.700203,-74464.482406
4773.438748,6217.729913,7550.100608,-73391.948708
4773.441312,-7994.224174,5625.565159,-75383.797003
4773.443876,0.000000,12287.418637,-73698.386908
4773.446439,-4885.359217,3404.947333,-75230.577904
4773.449002,-2516.700203,5033.400406,-74924.139704
4773.451565,-740.205942,6957.935855,-75843.454302
4773.454128,148.041188,1924.535449,-76303.111601
4773.456691,-1332.370696,8734.430116,-71859.757712
4773.459254,-3849.070898,7254.018232,-75077.358804
4773.461817,-9474.636058,7402.059420,-76149.892501
4773.464380,1628.453072,7105.977043,-76456.330700
4773.466943,-3849.070898,5477.523971,-74617.701505
4773.469507,1924.535449,6513.812290,-75077.358804
4773.472070,-9474.636058,6661.853478,-76456.330700
4773.474633,-148.041188,10658.965565,-74924.139704
4773.477196,-6069.688724,5773.606348,-75230.577904
4773.479759,4441.235652,2368.659014,-74311.263306
4773.482322,1628.453072,2516.700203,-74617.701505
4773.484885,12879.583391,12583.501014,-75077.358804
4773.487448,5773.606348,11547.212695,-76915.987999
4773.490011,11251.130318,3997.112087,-75537.016103
4773.492574,6365.771101,3108.864956,-71706.538613
4773.495137,740.205942,4885.359217,-75077.358804
4773.497701,5181.441594,13027.624579,-76762.768900
4773.500264,1776.494261,7254.018232,-75996.673402
4773.502827,10362.883188,6217.729913,-73851.606007
4773.505390,10066.800811,2664.741391,-75996.673402
4773.507953,5329.482782,5625.565159,-75996.673402
4773.510516,1924.535449,3701.029710,-75383.797003
4773.513079,5773.606348,13175.665768,-75537.016103
4773.515642,296.082377,7698.141797,-74464.482406
4773.518205,10362.883188,6809.894666,-74158.044206
4773.520768,4737.318029,6217.729913,-75690.235202
4773.523332,4589.276840,5625.565159,-75843.454302
4773.525895,11991.336260,5477.523971,-77069.207099
4773.528458,3849.070898,7550.100608,-75383.797003
4773.531021,10066.800811,7105.977043,-76149.892501
4773.533584,296.082377,8586.388927,-74464.482406
4773.536147,11399.171507,3997.112087,-74770.920605
4773.538710,592.164754,7402.059420,-75077.358804
4773.541273,15248.242405,7550.100608,-75077.358804
4773.543836,4293.194464,10955.047942,-74924.139704
4773.546397,9474.636058,5181.441594,-74924.139704
4773.548960,-7402.059420,2072.576638,-73851.606007
4773.551522,-5477.523971,5181.441594,-75383.797003
4773.554084,-10955.047942,11695.253884,-76149.892501
4773.556647,-592.164754,10066.800811,-74924.139704
4773.559209,4737.318029,740.205942,-74311.263306
4773.561772,-3108.864956,5477.523971,-73698.386908
4773.564334,-2072.576638,6365.771101,-75690.235202
4773.566897,-8734.430116,11103.089130,-77069.207099
4773.569459,-148.041188,6365.771101,-76762.768900
4773.572022,-444.123565,4441.235652,-74464.482406
4773.574584,592.164754,3849.070898,-74617.701505
4773.577147,-2664.741391,5181.441594,-76609.549800
4773.579709,-2072.576638,12731.542202,-74770.920605
4773.582272,-4737.318029,3404.947333,-75383.797003
4773.584834,-3997.112087,5625.565159,-74311.263306
4773.587397,2220.617826,9030.512492,-74004.825107
4773.589959,148.041188,7402.059420,-75230.577904
4773.592522,-5329.482782,6069.688724,-76303.111601
4773.595084,-1776.494261,7105.977043,-74770.920605
4773.597647,-15544.324782,6513.812290,-76303.111601
4773.600209,9918.759623,7254.018232,-75843.454302
4773.602771,-12583.501014,5033.400406,-74464.482406
4773.605334,7994.224174,6661.853478,-74924.139704
4773.607896,-10214.842000,5921.647536,-76303.111601
4773.610459,-148.041188,11103.089130,-75077.358804
4773.613021,-4441.235652,5921.647536,-74158.044206
4773.615584,2516.700203,3108.864956,-74924.139704
4773.618146,2812.782580,4441.235652,-75230.577904
4773.620709,11547.212695,12731.542202,-75383.797003
4773.623271,8586.388927,10066.800811,-76915.987999
4773.625834,8290.306550,2368.659014,-74924.139704
4773.628396,7254.018232,1332.370696,-72472.634111
4773.630959,592.164754,6069.688724,-75077.358804
4773.633521,4145.153275,11695.253884,-76456.330700
4773.636084,3108.864956,6513.812290,-76456.330700
4773.638646,11399.171507,6217.729913,-74464.482406
4773.641209,9474.636058,2516.700203,-74924.139704
4773.643771,6217.729913,8734.430116,-73545.167808
4773.646334,5773.606348,7105.977043,-73391.948708
4773.648895,-2072.576638,6513.812290,-75537.016103
4773.651456,8438.347739,6217.729913,-75537.016103
4773.654017,-148.041188,7402.059420,-74464.482406
4773.656578,13323.706956,5329.482782,-75230.577904
4773.659139,1924.535449,5921.647536,-76303.111601
4773.661701,12287.418637,6069.688724,-75230.577904
4773.664262,2664.741391,7105.977043,-75077.358804
4773.666823,5773.606348,9178.553681,-76762.768900
4773.669384,7105.977043,5181.441594,-75383.797003
4773.671945,4589.276840,5329.482782,-74158.044206
4773.674506,9326.594869,6809.894666,-74770.920605
4773.677068,13175.665768,8438.347739,-76149.892501
4773.679629,4885.359217,7402.059420,-76149.892501
4773.682190,2664.741391,3108.864956,-74311.263306
4773.684751,-10807.006753,2812.782580,-74924.139704
4773.687312,-9474.636058,9918.759623,-75077.358804
4773.689873,2368.659014,10510.924376,-75690.235202
4773.692435,0.000000,2812.782580,-74924.139704
4773.694996,3108.864956,3404.947333,-73085.510509
4773.697557,-4737.318029,5329.482782,-75690.235202
4773.700118,-5033.400406,11547.212695,-76149.892501
4773.702679,-11251.130318,9918.759623,-75690.235202
4773.705240,4293.194464,3552.988522,-75230.577904
4773.707802,-2960.823768,2812.782580,-74004.825107
4773.710363,4145.153275,5477.523971,-76609.549800
4773.712924,-4441.235652,11251.130318,-76609.549800
4773.715485,-3701.029710,5477.523971,-75230.577904
4773.718046,-4737.318029,8438.347739,-75690.235202
4773.720607,-5329.482782,7994.224174,-73851.606007
4773.723169,5625.565159,3849.070898,-76303.111601
4773.725730,-2516.700203,7994.224174,-75537.016103
4773.728291,4293.194464,4589.276840,-75996.673402
4773.730852,-21762.054695,9178.553681,-75230.577904
4773.733413,10510.924376,4589.276840,-76762.768900
4773.735974,-14656.077652,7402.059420,-74464.482406
4773.738536,9326.594869,4441.235652,-75537.016103
4773.741097,-11399.171507,8142.265362,-74617.701505
4773.743658,2960.823768,8734.430116,-76456.330700
4773.746219,-7698.141797,6513.812290,-75230.577904
4773.748780,4885.359217,3701.029710,-74311.263306
4773.751341,1332.370696,6217.729913,-74158.044206
4773.753902,11399.171507,12731.542202,-76149.892501
4773.756462,11991.336260,9326.594869,-76456.330700
4773.759023,6365.771101,1036.288319,-73698.386908
4773.761584,8882.471304,2960.823768,-72779.072310
4773.764144,-1184.329507,5329.482782,-75843.454302
4773.766705,3404.947333,11547.212695,-76456.330700
4773.769266,3552.988522,7254.018232,-75690.235202
4773.771826,10066.800811,5181.441594,-73851.606007
4773.774387,9918.759623,2812.782580,-73545.167808
4773.776948,2368.659014,6365.771101,-73545.167808
4773.779508,10362.883188,9178.553681,-74464.482406
4773.782069,-1628.453072,9326.594869,-74464.482406
4773.784630,4737.318029,3256.906145,-76456.330700
4773.787190,2812.782580,9918.759623,-73851.606007
4773.789751,15840.407159,3108.864956,-75537.016103
4773.792312,4145.153275,9030.512492,-73851.606007
4773.794872,9178.553681,5033.400406,-73851.606007
4773.797433,-592.164754,9178.553681,-74004.825107
4773.799994,7105.977043,7550.100608,-77222.426198
4773.802554,2812.782580,6957.935855,-75383.797003
4773.805115,7550.100608,5477.523971,-74464.482406
4773.807676,12731.542202,7846.182985,-74004.825107
4773.810236,8734.430116,9030.512492,-75383.797003
4773.812797,8586.388927,6217.729913,-75996.673402
4773.815358,-13471.748144,3404.947333,-74924.139704
4773.817918,-5033.400406,6661.853478,-75996.673402
4773.820479,-7402.059420,11399.171507,-76609.549800
4773.823040,2516.700203,7254.018232,-75230.577904
4773.825600,4293.194464,1480.411884,-73545.167808
4773.828161,-2072.576638,5477.523971,-73545.167808
4773.830722,-3552.988522,7105.977043,-76609.549800
4773.833282,-11547.212695,10066.800811,-76762.768900
4773.835843,2812.782580,4145.153275,-76149.892501
4773.838404,-3552.988522,4145.153275,-72779.072310
4773.840965,5625.565159,7402.059420,-73238.729609
4773.843525,-3552.988522,8882.471304,-74311.263306
4773.846086,-3404.947333,3849.070898,-77069.207099
4773.848647,-8438.347739,10066.800811,-75537.016103
4773.851207,5033.400406,888.247130,-77222.426198
4773.853767,-10214.842000,7698.141797,-74004.825107
4773.856326,4589.276840,7846.182985,-73238.729609
4773.858886,-5477.523971,4441.235652,-75843.454302
4773.861445,-3701.029710,8438.347739,-75077.358804
4773.864005,-3552.988522,6069.688724,-74924.139704
4773.866564,-6069.688724,8438.347739,-75843.454302
4773.869123,148.041188,6957.935855,-74924.139704
4773.871683,-2220.617826,6957.935855,-74617.701505
4773.874242,-740.205942,7846.182985,-74464.482406
4773.876802,-4885.359217,5921.647536,-74924.139704
4773.879361,2812.782580,3256.906145,-75383.797003
4773.881921,1480.411884,5181.441594,-73698.386908
4773.884480,10362.883188,11251.130318,-74770.920605
4773.887040,9178.553681,10955.047942,-75996.673402
4773.889599,11843.295072,1332.370696,-74311.263306
4773.892159,7105.977043,2516.700203,-72625.853210
4773.894718,1184.329507,5625.565159,-74770.920605
4773.897278,2960.823768,11399.171507,-77222.426198
4773.899837,3108.864956,7402.059420,-75230.577904
4773.902396,12731.542202,4441.235652,-74924.139704
4773.904956,7994.224174,3256.906145,-75383.797003
4773.907515,8882.471304,7550.100608,-74004.825107
4773.910075,2220.617826,2960.823768,-76303.111601
4773.912634,1480.411884,14211.954086,-74004.825107
4773.915194,-2220.617826,2960.823768,-77528.864398
4773.917753,8882.471304,8586.388927,-73545.167808
4773.920313,10362.883188,4145.153275,-73851.606007
4773.922872,12583.501014,9474.636058,-74770.920605
4773.925432,1036.288319,3849.070898,-74464.482406
4773.927991,6365.771101,9918.759623,-73545.167808
4773.930551,444.123565,4589.276840,-77835.302597
4773.933110,8142.265362,8142.265362,-74924.139704
4773.935670,3256.906145,5921.647536,-74464.482406
4773.938229,19393.395680,5329.482782,-75996.673402
4773.940788,296.082377,8734.430116,-76149.892501
4773.943348,7254.018232,5625.565159,-75230.577904
4773.945907,-14656.077652,3552.988522,-74924.139704
4773.948467,-10658.965565,8734.430116,-75230.577904
4773.951026,-740.205942,10214.842000,-76303.111601
4773.953586,-740.205942,3849.070898,-75383.797003
4773.956145,7550.100608,2220.617826,-74158.044206
4773.958703,-6809.894666,4885.359217,-75537.016103
4773.961262,-2368.659014,12139.377449,-75690.235202
4773.963821,-12731.542202,9178.553681,-75690.235202
4773.966380,0.000000,4145.153275,-75230.577904
4773.968939,-740.205942,3701.029710,-73085.510509
4773.971498,2960.823768,5181.441594,-73545.167808
4773.974057,-2072.576638,5625.565159,-74770.920605
4773.976615,-2516.700203,10510.924376,-75077.358804
4773.979174,-10066.800811,6069.688724,-75383.797003
4773.981733,3552.988522,6513.812290,-73851.606007
4773.984292,-3552.988522,7402.059420,-74158.044206
4773.986851,1184.329507,5033.400406,-77222.426198
4773.989410,-7994.224174,5625.565159,-75230.577904
4773.991968,148.041188,5773.606348,-74617.701505
4773.994527,-7994.224174,6513.812290,-75230.577904
4773.997086,-2072.576638,5033.400406,-76149.892501
4773.999645,-1184.329507,6809.894666,-74924.139704
4774.002204,-2368.659014,8142.265362,-73391.948708
4774.004763,-1332.370696,5921.647536,-75383.797003
4774.007321,444.123565,4589.276840,-74311.263306
4774.009880,2220.617826,3108.864956,-75383.797003
4774.012439,7846.182985,10658.965565,-76303.111601
4774.014998,8438.347739,11547.212695,-76609.549800
4774.017557,14508.036463,4145.153275,-74924.139704
4774.020116,7105.977043,2220.617826,-72932.291410
4774.022675,1924.535449,5921.647536,-75230.577904
4774.025233,1480.411884,10955.047942,-76303.111601
4774.027792,3404.947333,7846.182985,-76149.892501
4774.030351,9918.759623,5625.565159,-74617.701505
4774.032910,8290.306550,3701.029710,-74464.482406
4774.035469,11843.295072,5773.606348,-73851.606007
4774.038028,2368.659014,4293.194464,-74158.044206
4774.040586,9622.677246,4737.318029,-77222.426198
4774.043145,-10214.842000,11399.171507,-75383.797003
4774.045704,18949.272115,4589.276840,-73391.948708
4774.048263,740.205942,9474.636058,-73391.948708
4774.050822,19393.395680,2812.782580,-75996.673402
4774.053381,5033.400406,5181.441594,-74770.920605
4774.055940,2220.617826,8142.265362,-75383.797003
4774.058498,2960.823768,3108.864956,-77375.645298
4774.061057,7105.977043,9918.759623,-75383.797003
4774.063615,10658.965565,3849.070898,-74464.482406
4774.066174,14063.912898,7846.182985,-73698.386908
4774.068733,6069.688724,5181.441594,-74770.920605
4774.071291,1776.494261,5625.565159,-75690.235202
4774.073850,-11399.171507,6365.771101,-74311.263306
4774.076409,-11547.212695,11251.130318,-75383.797003
4774.078967,2812.782580,9178.553681,-76456.330700
4774.081526,740.205942,1628.453072,-74770.920605
4774.084085,3552.988522,4145.153275,-73238.729609
4774.086643,-3552.988522,4737.318029,-75843.454302
4774.089202,-3849.070898,11843.295072,-75843.454302
4774.091761,-10066.800811,8438.347739,-75996.673402
4774.094319,2220.617826,5033.400406,-74924.139704
4774.096878,-2072.576638,2664.741391,-75383.797003
4774.099437,2516.700203,4589.276840,-75077.358804
4774.101995,0.000000,13323.706956,-74924.139704
4774.104554,-3256.906145,3997.112087,-76915.987999
4774.107113,-13915.871710,7550.100608,-76149.892501
4774.109671,6513.812290,4441.235652,-74464.482406
4774.112230,-7254.018232,5033.400406,-75230.577904
4774.114789,2960.823768,8438.347739,-74924.139704
4774.117347,-4293.194464,4885.359217,-75537.016103
4774.119906,-8438.347739,7402.059420,-74924.139704
4774.122465,-1480.411884,5625.565159,-76149.892501
4774.125023,-5921.647536,9918.759623,-75230.577904
4774.127582,-1776.494261,4885.359217,-75383.797003
4774.130141,-1036.288319,7698.141797,-75230.577904
4774.132699,1628.453072,3256.906145,-75230.577904
4774.135258,-888.247130,2220.617826,-74617.701505
4774.137817,7698.141797,11251.130318,-75690.235202
4774.140375,4885.359217,13175.665768,-75537.016103
4774.142934,16284.530724,6513.812290,-75537.016103
4774.145492,4589.276840,-1184.329507,-73391.948708
4774.148051,8438.347739,5921.647536,-72625.853210
4774.150610,740.205942,7698.141797,-76915.987999
4774.153168,3108.864956,11991.336260,-76456.330700
4774.155727,5773.606348,6513.812290,-74770.920605
4774.158286,11399.171507,3108.864956,-76303.111601
4774.160845,8734.430116,6217.729913,-75077.358804
4774.163404,6957.935855,6957.935855,-74924.139704
4774.165963,1184.329507,5329.482782,-75537.016103
4774.168522,7254.018232,7105.977043,-76609.549800
4774.171081,-592.164754,4885.359217,-77069.207099
4774.173640,11843.295072,8734.430116,-73698.386908
4774.176199,11547.212695,3552.988522,-75843.454302
4774.178757,8734.430116,5921.647536,-75690.235202
4774.181316,7105.977043,6365.771101,-75996.673402
4774.183875,-1480.411884,6069.688724,-74464.482406
4774.186434,11399.171507,7698.141797,-75383.797003
4774.188993,-148.041188,6365.771101,-74924.139704
4774.191552,22354.219448,7402.059420,-75383.797003
4774.194111,-444.123565,5477.523971,-75230.577904
4774.196670,2516.700203,3552.988522,-75230.577904
4774.199229,-14211.954086,7105.977043,-74464.482406
4774.201788,-7550.100608,11103.089130,-75230.577904
4774.204347,-2368.659014,11251.130318,-76609.549800
4774.206906,4885.359217,1628.453072,-75383.797003
4774.209465,0.000000,3552.988522,-72625.853210
4774.212024,-1924.535449,4737.318029,-76303.111601
4774.214583,-4145.153275,14063.912898,-76149.892501
4774.217142,-10362.883188,5773.606348,-76915.987999
4774.219701,-5921.647536,6957.935855,-72625.853210
4774.222260,4441.235652,5625.565159,-73851.606007
4774.224819,1332.370696,3701.029710,-76609.549800
4774.227378,0.000000,4737.318029,-76762.768900
4774.229937,-7846.182985,7994.224174,-74311.263306
4774.232496,-6809.894666,10955.047942,-73851.606007
4774.235055,1480.411884,6513.812290,-75383.797003
4774.237614,-5921.647536,5921.647536,-73391.948708
4774.240173,-740.205942,8142.265362,-73698.386908
4774.242732,-3849.070898,4589.276840,-76456.330700
4774.245291,-2516.700203,7254.018232,-74924.139704
4774.247850,-9770.718434,5625.565159,-76456.330700
4774.250409,-148.041188,8438.347739,-76149.892501
4774.252968,-3849.070898,8290.306550,-74770.920605
4774.255526,-296.082377,6069.688724,-75230.577904
4774.258085,2072.576638,1776.494261,-75077.358804
4774.260644,888.247130,3701.029710,-75230.577904
4774.263203,11843.295072,12435.459826,-76149.892501
4774.265762,3552.988522,10955.047942,-76456.330700
4774.268320,17024.736666,2516.700203,-74924.139704
4774.270879,5477.523971,888.247130,-72779.072310
4774.273437,6069.688724,5329.482782,-74464.482406
4774.275996,148.041188,8882.471304,-76609.549800
4774.278555,3256.906145,7846.182985,-76149.892501
4774.281113,7254.018232,6513.812290,-74770.920605
4774.283672,10362.883188,4293.194464,-74770.920605
4774.286230,10214.842000,6957.935855,-74924.139704
4774.288789,6661.853478,3552.988522,-75690.235202
4774.291348,1480.411884,9178.553681,-75077.358804
4774.293906,-2368.659014,10066.800811,-74464.482406
4774.296465,11991.336260,5773.606348,-75230.577904
4774.299024,10658.965565,5921.647536,-75537.016103
4774.301582,10658.965565,4885.359217,-75077.358804
4774.304141,9030.512492,8586.388927,-74158.044206
4774.306699,-444.123565,5477.523971,-75690.235202
4774.309258,6809.894666,8438.347739,-75383.797003
4774.311817,2220.617826,5329.482782,-75690.235202
4774.314375,16580.613101,9178.553681,-74617.701505
4774.316934,10214.842000,5033.400406,-74158.044206
4774.319492,5181.441594,6365.771101,-74004.825107
4774.322051,-6365.771101,3256.906145,-75383.797003
4774.324610,-17764.942608,10807.006753,-75537.016103
4774.327168,740.205942,10955.047942,-75537.016103
4774.329727,-3404.947333,3849.070898,-75843.454302
4774.332285,7105.977043,1628.453072,-73851.606007
4774.334844,-6069.688724,5477.523971,-74464.482406
4774.337403,-1480.411884,10214.842000,-76149.892501
4774.339961,-9918.759623,10658.965565,-76303.111601
4774.342520,-2220.617826,6809.894666,-74158.044206
4774.345078,-148.041188,4589.276840,-72779.072310
4774.347637,4737.318029,8290.306550,-72012.976812
4774.350196,-3256.906145,2812.782580,-75230.577904
4774.352754,-3701.029710,10362.883188,-75230.577904
4774.355313,-2812.782580,4885.359217,-75230.577904
4774.357872,-8586.388927,4441.235652,-75230.577904
4774.360430,3552.988522,7550.100608,-72932.291410
4774.362989,2220.617826,5033.400406,-76303.111601
4774.365547,-148.041188,7254.018232,-74770.920605
4774.368104,-2960.823768,5033.400406,-75230.577904
4774.370662,-10214.842000,8438.347739,-75537.016103
4774.373220,-2664.741391,5181.441594,-75690.235202
4774.375778,-4441.235652,11547.212695,-73085.510509
4774.378336,2368.659014,4293.194464,-75077.358804
4774.380893,-592.164754,4145.153275,-73851.606007
4774.383451,5329.482782,4293.194464,-74464.482406
4774.386009,6809.894666,13915.871710,-75230.577904
4774.388567,8586.388927,8438.347739,-76915.987999
4774.391125,7698.141797,3256.906145,-74158.044206
4774.393682,12435.459826,296.082377,-73545.167808
4774.396240,1776.494261,6365.771101,-74924.139704
4774.398798,3404.947333,10066.800811,-77222.426198
4774.401356,3997.112087,9030.512492,-75383.797003
4774.403914,12287.418637,5625.565159,-74770.920605
4774.406471,4441.235652,2220.617826,-75230.577904
4774.409029,12583.501014,6809.894666,-75230.577904
4774.411587,1924.535449,10214.842000,-73391.948708
4774.414145,4293.194464,9326.594869,-74311.263306
4774.416703,2220.617826,6513.812290,-75383.797003
4774.419260,6513.812290,2664.741391,-77222.426198
4774.421818,13175.665768,7994.224174,-73698.386908
4774.424376,5329.482782,2960.823768,-75843.454302
4774.426934,13471.748144,6217.729913,-75077.358804
4774.429492,-3552.988522,3849.070898,-74770.920605
4774.432049,10214.842000,9178.553681,-75383.797003
4774.434607,2812.782580,6661.853478,-76149.892501
4774.437165,18505.148550,9030.512492,-74311.263306
4774.439723,3701.029710,4589.276840,-74617.701505
4774.442281,296.082377,4145.153275,-74311.263306
4774.444838,-10362.883188,7402.059420,-74311.263306
4774.447396,-10066.800811,11547.212695,-75537.016103
4774.449954,-1776.494261,9918.759623,-75843.454302
4774.452512,2220.617826,1036.288319,-75230.577904
4774.455070,2960.823768,4293.194464,-73238.729609
4774.457627,-2812.782580,5773.606348,-75843.454302
4774.460185,-4885.359217,11991.336260,-75996.673402
4774.462743,-9030.512492,6365.771101,-75996.673402
4774.465301,-3256.906145,6069.688724,-75230.577904
4774.467858,7846.182985,4145.153275,-75690.235202
4774.470415,-6809.894666,5773.606348,-74924.139704
4774.472973,5625.565159,7698.141797,-76915.987999
4774.475530,-13619.789333,9178.553681,-74004.825107
4774.478088,-4293.194464,6217.729913,-75077.358804
4774.480645,-8734.430116,6957.935855,-75996.673402
4774.483202,592.164754,6661.853478,-76149.892501
4774.485760,-3849.070898,6069.688724,-75996.673402
4774.488317,296.082377,5773.606348,-75537.016103
4774.490875,-7994.224174,8142.265362,-75690.235202
4774.493432,-3108.864956,5033.400406,-76149.892501
4774.495989,-4885.359217,8734.430116,-74004.825107
4774.498547,-888.247130,6513.812290,-74617.701505
4774.501104,4885.359217,3849.070898,-74464.482406
4774.503662,1480.411884,3552.988522,-74770.920605
4774.506219,10807.006753,11103.089130,-75843.454302
4774.508776,5773.606348,10807.006753,-76609.549800
4774.511334,13027.624579,3552.988522,-74617.701505
4774.513891,5181.441594,2072.576638,-72932.291410
4774.516449,6217.729913,5773.606348,-74311.263306
4774.519006,3701.029710,11695.253884,-77069.207099
4774.521563,3997.112087,7994.224174,-75690.235202
4774.524121,5921.647536,5033.400406,-73851.606007
4774.526678,11399.171507,4293.194464,-74311.263306
4774.529236,2664.741391,6365.771101,-74311.263306
4774.531793,10214.842000,5329.482782,-76762.768900
4774.534350,3404.947333,6513.812290,-74924.139704
4774.536908,3997.112087,5625.565159,-74617.701505
4774.539465,7846.182985,9622.677246,-77069.207099
4774.542023,8734.430116,2220.617826,-77069.207099
4774.544580,12139.377449,9474.636058,-74004.825107
4774.547137,5773.606348,3108.864956,-76303.111601
4774.549695,2960.823768,8734.430116,-74004.825107
4774.552252,5773.606348,5329.482782,-75537.016103
4774.554809,7994.224174,10658.965565,-74924.139704
4774.557367,13175.665768,4589.276840,-75230.577904
4774.559924,6661.853478,4589.276840,-73391.948708
4774.562482,-5181.441594,1776.494261,-76303.111601
4774.565039,-11991.336260,7994.224174,-75230.577904
4774.567596,-6217.729913,11399.171507,-76762.768900
4774.570152,-2220.617826,7105.977043,-76303.111601
4774.572710,5329.482782,2220.617826,-74158.044206
4774.575267,-2960.823768,4441.235652,-73698.386908
4774.577825,-296.082377,7550.100608,-76915.987999
4774.580382,-11103.089130,12435.459826,-76609.549800
4774.582939,-4145.153275,5625.565159,-76456.330700
4774.585497,-2516.700203,3701.029710,-75690.235202
4774.588054,6513.812290,3404.947333,-75690.235202
4774.590612,-1924.535449,5921.647536,-75537.016103
4774.593169,1628.453072,6809.894666,-75383.797003
4774.595726,-9918.759623,13471.748144,-72932.291410
4774.598284,-592.164754,4293.194464,-75996.673402
4774.600841,-9770.718434,5625.565159,-74770.920605
4774.603398,-1924.535449,7254.018232,-73851.606007
4774.605956,-5625.565159,2960.823768,-76303.111601
4774.608513,1184.329507,7402.059420,-75383.797003
4774.611071,-7105.977043,6365.771101,-75843.454302
4774.613628,-2812.782580,7105.977043,-76149.892501
4774.616185,-6513.812290,7846.182985,-75077.358804
4774.618743,-148.041188,4589.276840,-74617.701505
4774.621300,5625.565159,2812.782580,-75077.358804
4774.623858,6365.771101,11251.130318,-74158.044206
4774.626415,9918.759623,11991.336260,-77069.207099
4774.628972,10807.006753,7698.141797,-76762.768900
4774.631530,5329.482782,-444.123565,-73238.729609
4774.634087,7846.182985,3849.070898,-72779.072310
4774.636644,2220.617826,7254.018232,-75843.454302
4774.639202,5181.441594,13027.624579,-76915.987999
4774.641759,5921.647536,6217.729913,-75996.673402
4774.644317,13619.789333,3997.112087,-75537.016103
4774.646874,9030.512492,5329.482782,-75383.797003
4774.649431,7846.182985,4293.194464,-75230.577904
4774.651989,2220.617826,9178.553681,-74617.701505
4774.654546,-2812.782580,8882.471304,-74924.139704
4774.657104,15692.365970,6217.729913,-76609.549800
4774.659661,1924.535449,5477.523971,-74311.263306
4774.662218,20873.807564,6217.729913,-73698.386908
4774.664776,4737.318029,6069.688724,-75843.454302
4774.667333,2664.741391,5921.647536,-74311.263306
4774.669890,6661.853478,8290.306550,-74770.920605
4774.672448,5181.441594,7105.977043,-76609.549800
4774.675006,15396.283594,8290.306550,-74770.920605
4774.677563,5773.606348,3701.029710,-73698.386908
4774.680121,740.205942,3404.947333,-74004.825107
4774.682679,-10214.842000,4885.359217,-75077.358804
4774.685236,-14656.077652,10955.047942,-76303.111601
4774.687794,1480.411884,9474.636058,-75843.454302
4774.690352,148.041188,740.205942,-74311.263306
4774.692909,2812.782580,4589.276840,-72779.072310
4774.695467,-2812.782580,5181.441594,-75843.454302
4774.698025,-5477.523971,13471.748144,-75537.016103
4774.700582,-6809.894666,7402.059420,-76762.768900
4774.703140,-3849.070898,5181.441594,-78141.740796
4774.705698,12731.542202,7254.018232,-71859.757712
4774.708255,-9326.594869,4441.235652,-72472.634111
4774.710813,6069.688724,8438.347739,-77222.426198
4774.713371,-5625.565159,6513.812290,-75383.797003
4774.715928,-8734.430116,3404.947333,-75537.016103
4774.718486,-444.123565,9770.718434,-73391.948708
4774.721044,-7994.224174,4441.235652,-75537.016103
4774.723601,2072.576638,5329.482782,-75077.358804
4774.726159,-1036.288319,6957.935855,-74311.263306
4774.728717,-8142.265362,7402.059420,-75383.797003
4774.731274,-3997.112087,7105.977043,-75843.454302
4774.733832,-5773.606348,7994.224174,-75230.577904
4774.736390,1776.494261,4145.153275,-74158.044206
4774.738947,5477.523971,1332.370696,-75690.235202
4774.741505,6069.688724,10214.842000,-74617.701505
4774.744063,9770.718434,11991.336260,-76456.330700
4774.746620,12731.542202,6957.935855,-75843.454302
4774.749178,3997.112087,-592.164754,-73238.729609
4774.751736,9030.512492,5033.400406,-72472.634111
4774.754293,2516.700203,6957.935855,-76762.768900
4774.756850,6957.935855,13323.706956,-75996.673402
4774.759407,7994.224174,5329.482782,-76149.892501
4774.761965,5921.647536,4293.194464,-74004.825107
4774.764522,7846.182985,5477.523971,-71859.757712
4774.767079,10362.883188,9918.759623,-74004.825107
4774.769636,-5033.400406,10658.965565,-73391.948708
4774.772193,12879.583391,6513.812290,-75996.673402
4774.774751,-5773.606348,4293.194464,-77222.426198
4774.777308,22502.260637,6365.771101,-75230.577904
4774.779865,148.041188,7402.059420,-74924.139704
4774.782422,17172.777854,4885.359217,-74464.482406
4774.784980,-4145.153275,6069.688724,-75077.358804
4774.787537,2960.823768,8586.388927,-75383.797003
4774.790094,13915.871710,9326.594869,-76456.330700
4774.792651,8142.265362,6513.812290,-75230.577904
4774.795209,6365.771101,4737.318029,-73698.386908
4774.797766,-5477.523971,740.205942,-74158.044206
4774.800323,-11843.295072,8290.306550,-75996.673402
4774.802880,-6809.894666,12287.418637,-76149.892501
4774.805437,-2516.700203,6513.812290,-76303.111601
4774.807995,6365.771101,2220.617826,-73391.948708
4774.810552,-5033.400406,3701.029710,-74464.482406
4774.813109,-444.123565,10955.047942,-75537.016103
4774.815666,-11103.089130,9474.636058,-76303.111601
4774.818224,-444.123565,5921.647536,-75383.797003
4774.820781,-4737.318029,5033.400406,-73545.167808
4774.823338,3997.112087,2960.823768,-74770.920605
4774.825895,-9918.759623,4441.235652,-74617.701505
4774.828453,11103.089130,11103.089130,-74158.044206
4774.831010,-2516.700203,5181.441594,-76762.768900
4774.833567,-7402.059420,9326.594869,-73698.386908
4774.836124,-2664.741391,5625.565159,-73391.948708
4774.838681,-7698.141797,3997.112087,-74770.920605
4774.841239,7105.977043,6957.935855,-75230.577904
4774.843796,-14656.077652,5033.400406,-76609.549800
4774.846353,2516.700203,8438.347739,-75537.016103
4774.848910,-9326.594869,8586.388927,-75690.235202
4774.851468,-3108.864956,4737.318029,-75077.358804
4774.854025,7254.018232,1036.288319,-74464.482406
4774.856582,-740.205942,6957.935855,-74464.482406
4774.859139,18801.230927,13027.624579,-76762.768900
4774.861696,5625.565159,10066.800811,-75996.673402
4774.864253,11547.212695,740.205942,-74158.044206
4774.866811,3552.988522,3108.864956,-72625.853210
4774.869368,4737.318029,4589.276840,-76149.892501
4774.871925,5921.647536,11547.212695,-75996.673402
4774.874482,5921.647536,7846.182985,-76609.549800
4774.877039,11399.171507,5181.441594,-75843.454302
4774.879596,5477.523971,2072.576638,-75230.577904
4774.882153,9622.677246,6069.688724,-75383.797003
4774.884711,4441.235652,7698.141797,-74158.044206
4774.887268,-3404.947333,8290.306550,-75537.016103
4774.889825,17320.819043,7994.224174,-74617.701505
4774.892382,2812.782580,6365.771101,-74004.825107
4774.894939,14804.118840,8290.306550,-73698.386908
4774.897496,444.123565,3849.070898,-74158.044206
4774.900053,9474.636058,8142.265362,-73698.386908
4774.902611,2812.782580,7105.977043,-75690.235202
4774.905168,14211.954086,9030.512492,-75843.454302
4774.907725,4589.276840,6069.688724,-74004.825107
4774.910282,7846.182985,3108.864956,-72932.291410
4774.912839,-5477.523971,3108.864956,-75077.358804
4774.915396,-14211.954086,8734.430116,-75996.673402
4774.917953,-3552.988522,11991.336260,-76762.768900
4774.920511,-6957.935855,2664.741391,-74311.263306
4774.923068,9622.677246,2960.823768,-73545.167808
4774.925625,-9622.677246,4885.359217,-74311.263306
4774.928182,2516.700203,10807.006753,-75996.673402
4774.930739,-13175.665768,10214.842000,-75077.358804
4774.933296,-1036.288319,4737.318029,-75077.358804
4774.935853,-4145.153275,3108.864956,-73545.167808
4774.938411,3997.112087,3108.864956,-73851.606007
4774.940968,1776.494261,9474.636058,-75690.235202
4774.943525,-3108.864956,8586.388927,-74311.263306
4774.946082,-4293.194464,5329.482782,-77528.864398
4774.948639,-5625.565159,6365.771101,-75383.797003
4774.951196,-1776.494261,4885.359217,-75843.454302
4774.953753,-2368.659014,7550.100608,-74311.263306
4774.956311,-3849.070898,4885.359217,-76456.330700
4774.958830,-4589.276840,8438.347739,-75383.797003
4774.961350,-5921.647536,8438.347739,-75843.454302
4774.963870,-6217.729913,8586.388927,-76456.330700
4774.966390,3256.906145,1480.411884,-75383.797003
4774.968910,1776.494261,592.164754,-73391.948708
4774.971430,11399.171507,11399.171507,-75383.797003
4774.973950,7254.018232,13323.706956,-76456.330700
4774.976470,14063.912898,6957.935855,-75077.358804
4774.978990,1628.453072,-444.123565,-73391.948708
4774.981509,10807.006753,4441.235652,-74311.263306
4774.984029,0.000000,7698.141797,-76915.987999
4774.986549,6513.812290,11399.171507,-75537.016103
4774.989069,5033.400406,5921.647536,-75077.358804
4774.991589,8882.471304,5181.441594,-74004.825107
4774.994109,5625.565159,148.041188,-75383.797003
4774.996629,11103.089130,10955.047942,-74004.825107
4774.999149,-1036.288319,5181.441594,-76456.330700
4775.001668,6661.853478,9178.553681,-75230.577904
4775.004188,4737.318029,4737.318029,-75383.797003
4775.006708,12583.501014,8586.388927,-74924.139704
4775.009228,9030.512492,4589.276840,-76303.111601
4775.011748,3256.906145,7105.977043,-72932.291410
4775.014268,10807.006753,5773.606348,-74464.482406
4775.016788,2368.659014,9326.594869,-75843.454302
4775.019308,15544.324782,7698.141797,-76915.987999
4775.021827,1628.453072,5033.400406,-75383.797003
4775.024347,-2368.659014,888.247130,-74770.920605
4775.026867,-11399.171507,7846.182985,-75843.454302
4775.029387,-5477.523971,11547.212695,-77222.426198
4775.031907,-5181.441594,9918.759623,-75537.016103
4775.034427,4885.359217,740.205942,-74464.482406
4775.036947,-4293.194464,3849.070898,-73391.948708
4775.039467,592.164754,6809.894666,-75690.235202
4775.041987,-8882.471304,11547.212695,-76303.111601
4775.044506,-1036.288319,6365.771101,-76915.987999
4775.047026,-2812.782580,5477.523971,-74004.825107
4775.049546,-296.082377,3108.864956,-74770.920605
4775.052066,3701.029710,5921.647536,-75383.797003
4775.054586,-9918.759623,8882.471304,-75383.797003
4775.057106,4293.194464,6365.771101,-75230.577904
4775.059634,-13027.624579,8882.471304,-73698.386908
4775.062162,3997.112087,6069.688724,-74924.139704
4775.064690,-8734.430116,6365.771101,-75383.797003
4775.067218,296.082377,5921.647536,-74770.920605
4775.069746,-4293.194464,6365.771101,-74617.701505
4775.072274,-4885.359217,7994.224174,-75383.797003
4775.074802,-3997.112087,7550.100608,-75996.673402
4775.077330,-3849.070898,4293.194464,-75843.454302
4775.079858,8290.306550,296.082377,-74004.825107
4775.082386,-148.041188,9178.553681,-73851.606007
4775.084914,14952.160028,11695.253884,-77222.426198
4775.087442,8882.471304,7698.141797,-75996.673402
4775.089970,8586.388927,-1776.494261,-73085.510509
4775.092498,3404.947333,5625.565159,-73238.729609
4775.095026,2516.700203,7846.182985,-76456.330700
4775.097554,5625.565159,10955.047942,-75996.673402
4775.100082,9178.553681,6513.812290,-75996.673402
4775.102610,9326.594869,5477.523971,-74770.920605
4775.105138,12731.542202,7105.977043,-72779.072310
4775.107666,-3256.906145,6069.688724,-74004.825107
4775.110194,7994.224174,11399.171507,-74158.044206
4775.112722,2220.617826,3108.864956,-77222.426198
4775.115250,13323.706956,9622.677246,-73545.167808
4775.117778,4589.276840,4589.276840,-74311.263306
4775.120306,12583.501014,5921.647536,-74617.701505
4775.122834,6513.812290,5625.565159,-75690.235202
4775.125362,1184.329507,6365.771101,-74617.701505
4775.127890,14211.954086,8142.265362,-75843.454302
4775.130418,592.164754,7994.224174,-75843.454302
4775.132946,15248.242405,5329.482782,-74770.920605
4775.135474,-13619.789333,1628.453072,-74158.044206
4775.138002,-3256.906145,7994.224174,-75996.673402
4775.140530,-11991.336260,11695.253884,-76762.768900
4775.143058,1036.288319,8734.430116,-75537.016103
4775.145587,6069.688724,1480.411884,-73391.948708
4775.148115,-7698.141797,5773.606348,-74311.263306
4775.150643,2072.576638,8882.471304,-76609.549800
4775.153171,-12435.459826,9474.636058,-76456.330700
4775.155699,-1036.288319,4885.359217,-75537.016103
4775.158227,-5477.523971,4293.194464,-73391.948708
4775.160762,5181.441594,2664.741391,-74924.139704
4775.163297,-9622.677246,10807.006753,-72625.853210
4775.165832,2664.741391,8882.471304,-74924.139704
4775.168367,-11103.089130,7550.100608,-76915.987999
4775.170903,-444.123565,5921.647536,-76609.549800
4775.173438,-7402.059420,4589.276840,-75383.797003
4775.175973,148.041188,5773.606348,-75690.235202
4775.178508,-6217.729913,5033.400406,-74770.920605
4775.181044,-4441.235652,6069.688724,-74617.701505
4775.183579,-1036.288319,8734.430116,-75077.358804
4775.186114,-7402.059420,6661.853478,-75383.797003
4775.188649,11103.089130,3108.864956,-74004.825107
4775.191184,-4885.359217,3552.988522,-72932.291410
4775.193720,18653.189738,10362.883188,-76303.111601
4775.196255,3404.947333,13175.665768,-77835.302597
4775.198790,18357.107362,2220.617826,-75537.016103
4775.201325,444.123565,3701.029710,-72166.195912
4775.203860,7846.182985,4737.318029,-74464.482406
4775.206396,148.041188,10066.800811,-77222.426198
4775.208931,3849.070898,9030.512492,-75537.016103
4775.211466,12139.377449,4441.235652,-74617.701505
4775.214001,4885.359217,6661.853478,-73545.167808
4775.216536,7846.182985,6661.853478,-74464.482406
4775.219072,-148.041188,7994.224174,-75996.673402
4775.221607,9770.718434,7846.182985,-76149.892501
4775.224142,3552.988522,7846.182985,-75077.358804
4775.226677,9918.759623,8142.265362,-74924.139704
4775.229213,888.247130,888.247130,-75383.797003
4775.231748,15840.407159,9030.512492,-75690.235202
4775.234283,740.205942,3552.988522,-75537.016103
4775.236818,10807.006753,10955.047942,-75230.577904
4775.239353,6069.688724,5625.565159,-75996.673402
4775.241889,11251.130318,8586.388927,-75996.673402
4775.244424,-5033.400406,148.041188,-74004.825107
4775.246959,-4589.276840,5773.606348,-73698.386908
4775.249494,-11547.212695,11991.336260,-76915.987999
4775.252029,-3701.029710,9178.553681,-75843.454302
4775.254565,2516.700203,2664.741391,-73698.386908
4775.257100,-5625.565159,4441.235652,-73851.606007
4775.259635,2812.782580,6809.894666,-75996.673402
4775.262175,-9326.594869,10510.924376,-76149.892501
4775.264716,-888.247130,5625.565159,-76609.549800
4775.267256,-6957.935855,7846.182985,-73391.948708
4775.269796,-296.082377,5921.647536,-74464.482406
4775.272337,5033.400406,4293.194464,-75077.358804
4775.274877,-4293.194464,7402.059420,-75843.454302
4775.277417,-3404.947333,9030.512492,-75230.577904
4775.279957,-7550.100608,4589.276840,-77528.864398
4775.282498,-5033.400406,6513.812290,-74617.701505
4775.285038,-2220.617826,5773.606348,-75996.673402
4775.287578,-11399.171507,5921.647536,-75690.235202
4775.290119,3701.029710,7402.059420,-75230.577904
4775.292659,-8882.471304,8734.430116,-75077.358804
4775.295199,296.082377,5477.523971,-75690.235202
4775.297739,-2960.823768,4737.318029,-73851.606007
4775.300280,296.082377,5477.523971,-74770.920605
4775.302820,15692.365970,10955.047942,-75383.797003
4775.305360,9326.594869,10955.047942,-75996.673402
4775.307901,11843.295072,2812.782580,-74311.263306
4775.310441,5773.606348,3108.864956,-71859.757712
4775.312981,888.247130,5033.400406,-75383.797003
4775.315521,4885.359217,9622.677246,-77069.207099
4775.318062,888.247130,8734.430116,-74770.920605
4775.320602,12731.542202,6069.688724,-74617.701505
4775.323142,5625.565159,5329.482782,-74617.701505
4775.325683,4145.153275,3997.112087,-75230.577904
4775.328223,5181.441594,7402.059420,-75996.673402
4775.330763,2368.659014,7994.224174,-76149.892501
4775.333303,7550.100608,8290.306550,-74924.139704
4775.335844,9474.636058,4589.276840,-75077.358804
4775.338384,10807.006753,5773.606348,-73851.606007
4775.340924,13323.706956,5921.647536,-75996.673402
4775.343465,-1332.370696,7550.100608,-75077.358804
4775.346005,15396.283594,6513.812290,-74924.139704
4775.348545,-2516.700203,9178.553681,-73851.606007
4775.351085,16136.489536,5477.523971,-75383.797003
4775.353626,-12583.501014,2072.576638,-74158.044206
4775.356166,-3701.029710,6661.853478,-75690.235202
4775.358706,-11547.212695,11695.253884,-76762.768900
4775.361247,-3849.070898,4441.235652,-75843.454302
4775.363792,4441.235652,3404.947333,-72779.072310
4775.366337,-5181.441594,5625.565159,-74770.920605
4775.368882,148.041188,9030.512492,-76609.549800
4775.371427,-13323.706956,9178.553681,-76456.330700
4775.373972,3701.029710,7698.141797,-74311.263306
4775.376517,-9918.759623,7254.018232,-75230.577904
4775.379062,8734.430116,-148.041188,-76915.987999
4775.381608,12139.377449,4293.194464,-77375.645298
4775.384153,-19837.519246,10362.883188,-75230.577904
4775.386698,11399.171507,3701.029710,-76149.892501
4775.389243,-21762.054695,10955.047942,-74158.044206
4775.391788,11251.130318,2960.823768,-74924.139704
4775.394333,-17912.983796,9770.718434,-74617.701505
4775.396878,9474.636058,5033.400406,-76303.111601
4775.399423,-14063.912898,7846.182985,-74770.920605
4775.401969,592.164754,6365.771101,-76456.330700
4775.404514,-4441.235652,5033.400406,-76303.111601
4775.407059,7254.018232,1036.288319,-75996.673402
4775.409604,3552.988522,8586.388927,-74004.825107
4775.412149,15988.448347,11547.212695,-76456.330700
4775.414694,10510.924376,8586.388927,-75996.673402
4775.417239,6513.812290,-148.041188,-73698.386908
4775.419785,8586.388927,4885.359217,-73391.948708
4775.422330,-2220.617826,9474.636058,-76303.111601
4775.424875,7846.182985,8734.430116,-76149.892501
4775.427420,4441.235652,10214.842000,-73391.948708
4775.429965,15544.324782,5773.606348,-74617.701505
4775.432510,2664.741391,2664.741391,-75537.016103
4775.435055,7550.100608,8734.430116,-75077.358804
4775.437600,2220.617826,6217.729913,-74311.263306
4775.440146,2368.659014,6069.688724,-77069.207099
4775.442691,10214.842000,9770.718434,-74464.482406
4775.445236,3256.906145,2368.659014,-75077.358804
4775.447781,16580.613101,8586.388927,-74464.482406
4775.450326,2516.700203,3997.112087,-74770.920605
4775.452871,8438.347739,9474.636058,-74464.482406
4775.455416,5181.441594,6365.771101,-75383.797003
4775.457962,11103.089130,8290.306550,-75383.797003
4775.460507,-6513.812290,296.082377,-75996.673402
4775.463052,-4293.194464,5625.565159,-75077.358804
4775.465601,-3701.029710,10066.800811,-76149.892501
4775.468150,-8882.471304,8142.265362,-76149.892501
4775.470699,6809.894666,3404.947333,-74311.263306
4775.473248,-10510.924376,6069.688724,-73085.510509
4775.475797,7846.182985,6957.935855,-76609.549800
4775.478346,-16432.571912,10510.924376,-75537.016103
4775.480895,-296.082377,6069.688724,-74924.139704
4775.483445,-9326.594869,6365.771101,-73391.948708
4775.485994,9178.553681,7994.224174,-74311.263306
4775.488543,-4293.194464,5921.647536,-75383.797003
4775.491092,-296.082377,7550.100608,-76149.892501
4775.493641,-13471.748144,6365.771101,-77375.645298
4775.496190,0.000000,7550.100608,-75383.797003
4775.498739,-8290.306550,4441.235652,-75077.358804
4775.501288,-2664.741391,7846.182985,-74924.139704
4775.503837,-3108.864956,5329.482782,-75690.235202
4775.506386,-3404.947333,9178.553681,-74617.701505
4775.508935,-148.041188,6365.771101,-75537.016103
4775.511485,-6957.935855,4885.359217,-75537.016103
4775.514034,7254.018232,1184.329507,-75690.235202
4775.516583,1776.494261,10510.924376,-73545.167808
4775.519132,16136.489536,9770.718434,-75996.673402
4775.521681,9622.677246,9030.512492,-76303.111601
4775.524230,12583.501014,-296.082377,-74617.701505
4775.526779,4145.153275,6513.812290,-73851.606007
4775.529328,1332.370696,6809.894666,-76609.549800
4775.531877,4737.318029,8882.471304,-76456.330700
4775.534426,11103.089130,6513.812290,-75537.016103
4775.536975,8586.388927,4885.359217,-75690.235202
4775.539525,11991.336260,3552.988522,-75843.454302
4775.542074,7698.141797,5477.523971,-74464.482406
4775.544623,-1332.370696,9178.553681,-74770.920605
4775.547172,6217.729913,8734.430116,-76609.549800
4775.549721,4885.359217,4737.318029,-75996.673402
4775.552270,15248.242405,7698.141797,-73851.606007
4775.554819,9474.636058,4441.235652,-74311.263306
4775.557368,5625.565159,8142.265362,-74311.263306
4775.559917,13471.748144,6069.688724,-75077.358804
4775.562466,-2072.576638,11399.171507,-74158.044206
4775.565016,15100.201217,4885.359217,-76762.768900
4775.567569,-12731.542202,3256.906145,-74311.263306
4775.570122,-444.123565,8290.306550,-75077.358804
4775.572674,-12139.377449,9622.677246,-76149.892501
4775.575227,-888.247130,6661.853478,-75996.673402
4775.577779,0.000000,3108.864956,-73238.729609
4775.580332,-4885.359217,5329.482782,-73545.167808
4775.582885,-444.123565,8734.430116,-76456.330700
4775.585437,-9918.759623,8142.265362,-76149.892501
4775.587990,-6217.729913,1628.453072,-76609.549800
4775.590542,1184.329507,7105.977043,-74770.920605
4775.593095,-444.123565,6513.812290,-73698.386908
4775.595647,2368.659014,3404.947333,-77069.207099
4775.598200,-12583.501014,12879.583391,-75537.016103
4775.600752,1332.370696,2664.741391,-77682.083497
4775.603305,-11399.171507,9474.636058,-75077.358804
4775.605857,1332.370696,4885.359217,-74617.701505
4775.608410,-7846.182985,7105.977043,-75996.673402
4775.610963,-3997.112087,6365.771101,-76303.111601
4775.613515,-1628.453072,10362.883188,-74617.701505
4775.616068,-6365.771101,4293.194464,-75996.673402
4775.618620,5329.482782,5033.400406,-75077.358804
4775.621173,1332.370696,2960.823768,-73851.606007
4775.623725,13471.748144,9474.636058,-74770.920605
4775.626278,9770.718434,11399.171507,-76609.549800
4775.628830,16728.654289,1480.411884,-75690.235202
4775.631383,2812.782580,4885.359217,-72779.072310
4775.633935,4589.276840,5625.565159,-74924.139704
4775.636488,4737.318029,9622.677246,-75996.673402
4775.639041,3997.112087,7402.059420,-74924.139704
4775.641593,13915.871710,7402.059420,-74158.044206
4775.644146,888.247130,1628.453072,-74004.825107
4775.646698,18505.148550,7994.224174,-74464.482406
4775.649251,-1332.370696,1628.453072,-77835.302597
4775.651803,7254.018232,8734.430116,-75383.797003
4775.654356,7402.059420,7254.018232,-73085.510509
4775.656908,7550.100608,7105.977043,-75077.358804
4775.659461,15248.242405,6365.771101,-74311.263306
4775.662013,3256.906145,6957.935855,-74311.263306
4775.664566,16284.530724,7994.224174,-74924.139704
4775.667119,-148.041188,7254.018232,-73698.386908
4775.669639,15396.283594,7402.059420,-75690.235202
4775.672159,-14508.036463,2220.617826,-76303.111601
4775.674679,2220.617826,7550.100608,-75077.358804
4775.677199,-14211.954086,9326.594869,-74924.139704
4775.679719,2072.576638,8586.388927,-75843.454302
4775.682239,-5181.441594,2368.659014,-75230.577904
4775.684759,-2516.700203,5329.482782,-73238.729609
4775.687279,-148.041188,6069.688724,-75383.797003
4775.689800,-15100.201217,10066.800811,-75996.673402
4775.692320,1628.453072,6069.688724,-77222.426198
4775.694840,-7994.224174,3849.070898,-75383.797003
4775.697360,3404.947333,4589.276840,-76149.892501
4775.699880,2960.823768,11399.171507,-73391.948708
4775.702400,-6365.771101,5625.565159,-76456.330700
4775.704920,-9326.594869,11547.212695,-76762.768900
4775.707440,-2516.700203,888.247130,-77069.207099
4775.709961,-10807.006753,4737.318029,-75230.577904
4775.712481,3997.112087,4885.359217,-75230.577904
4775.715001,-13619.789333,5477.523971,-76303.111601
4775.717521,7105.977043,9326.594869,-74770.920605
4775.720041,-11547.212695,5477.523971,-74311.263306
4775.722561,10362.883188,5773.606348,-74617.701505
4775.725081,-5773.606348,2072.576638,-74770.920605
4775.727601,21021.848753,13027.624579,-75230.577904
4775.730121,5181.441594,8882.471304,-75996.673402
4775.732642,14656.077652,3701.029710,-74924.139704
4775.735162,6069.688724,2516.700203,-72472.634111
4775.737682,4145.153275,7846.182985,-74004.825107
4775.740202,4293.194464,7698.141797,-76303.111601
4775.742722,-3701.029710,6365.771101,-74924.139704
4775.745242,15544.324782,6513.812290,-74158.044206
4775.747762,7402.059420,2072.576638,-74770.920605
4775.750282,8882.471304,5477.523971,-74617.701505
4775.752803,-1628.453072,10214.842000,-74004.825107
4775.755323,6809.894666,7402.059420,-76609.549800
4775.757843,4441.235652,6217.729913,-76149.892501
4775.760363,12287.418637,4737.318029,-74464.482406
4775.762883,9030.512492,5477.523971,-75690.235202
4775.765403,9918.759623,6661.853478,-75843.454302
4775.767923,13471.748144,7254.018232,-74464.482406
4775.770453,-2664.741391,9030.512492,-74464.482406
4775.772982,12583.501014,5477.523971,-75690.235202
4775.775512,-13027.624579,4145.153275,-75690.235202
4775.778042,1480.411884,6069.688724,-74311.263306
4775.780571,-12583.501014,9770.718434,-75383.797003
4775.783101,-1480.411884,4145.153275,-76609.549800
4775.785630,-888.247130,3404.947333,-74004.825107
4775.788160,-5033.400406,5033.400406,-73698.386908
4775.790690,-3849.070898,10214.842000,-76149.892501
4775.793219,-8586.388927,8734.430116,-76762.768900
4775.795749,-2072.576638,5625.565159,-75537.016103
4775.798278,-296.082377,4145.153275,-74311.263306
4775.800808,592.164754,7846.182985,-74924.139704
4775.803338,3997.112087,5625.565159,-75230.577904
4775.805867,-8586.388927,9622.677246,-73851.606007
4775.808397,-3256.906145,6217.729913,-74311.263306
4775.810926,-8586.388927,5773.606348,-75230.577904
4775.813456,-4589.276840,3997.112087,-74311.263306
4775.815986,-4293.194464,8142.265362,-73698.386908
4775.818515,-5773.606348,6513.812290,-76609.549800
4775.821045,592.164754,9770.718434,-75537.016103
4775.823575,-10066.800811,5181.441594,-74464.482406
4775.826104,10066.800811,2220.617826,-75077.358804
4775.828634,444.123565,10214.842000,-74004.825107
4775.831163,14063.912898,10214.842000,-76456.330700
4775.833693,14508.036463,8290.306550,-75843.454302
4775.836223,5329.482782,592.164754,-74004.825107
4775.838752,15544.324782,6809.894666,-72932.291410
4775.841282,-6365.771101,6365.771101,-75690.235202
4775.843811,6217.729913,8882.471304,-75383.797003
4775.846341,5921.647536,7402.059420,-75843.454302
4775.848871,7254.018232,2220.617826,-77528.864398
4775.851400,20429.683999,5181.441594,-75843.454302
4775.853930,-10066.800811,10362.883188,-71859.757712
4775.856459,24722.878463,3849.070898,-75230.577904
4775.858989,-9326.594869,10955.047942,-74004.825107
4775.861519,19689.478057,3849.070898,-74004.825107
4775.864048,12287.418637,6513.812290,-74770.920605
4775.866578,8586.388927,5625.565159,-74004.825107
4775.869107,17912.983796,7994.224174,-74004.825107
4775.871610,888.247130,6513.812290,-74004.825107
4775.874113,12435.459826,5477.523971,-75843.454302
4775.876617,-9030.512492,4737.318029,-75383.797003
4775.879120,740.205942,5033.400406,-74770.920605
4775.881623,-16284.530724,11103.089130,-74464.482406
4775.884126,9178.553681,8142.265362,-76303.111601
4775.886629,-7994.224174,4885.359217,-74158.044206
4775.889132,1924.535449,3404.947333,-73391.948708
4775.891635,-6513.812290,9030.512492,-74924.139704
4775.894138,-9030.512492,10658.965565,-76762.768900
4775.896641,3256.906145,7550.100608,-76609.549800
4775.899144,-7846.182985,2812.782580,-76762.768900
4775.901647,7994.224174,2960.823768,-76149.892501
4775.904150,-3404.947333,8290.306550,-74770.920605
4775.906653,592.164754,6809.894666,-75230.577904
4775.909156,-12435.459826,9770.718434,-75383.797003
4775.911659,-6957.935855,2812.782580,-75843.454302
4775.914162,-5477.523971,6957.935855,-74464.482406
4775.916665,-2220.617826,4293.194464,-74617.701505
4775.919168,-4293.194464,8882.471304,-74158.044206
4775.921671,-1184.329507,8438.347739,-75690.235202
4775.924175,-6957.935855,3404.947333,-75690.235202
4775.926678,8734.430116,3552.988522,-74158.044206
4775.929181,-3997.112087,6957.935855,-73698.386908
4775.931684,17468.860231,11843.295072,-75383.797003
4775.934187,10066.800811,9030.512492,-75230.577904
4775.936690,13175.665768,888.247130,-74617.701505
4775.939193,7846.182985,5181.441594,-73698.386908
4775.941696,-148.041188,6809.894666,-75843.454302
4775.944199,6513.812290,10807.006753,-76609.549800
4775.946702,-3404.947333,8142.265362,-73085.510509
4775.949205,25759.166782,7550.100608,-72932.291410
4775.951708,-7846.182985,4293.194464,-73698.386908
4775.954211,22354.219448,3997.112087,-74770.920605
4775.956714,-11103.089130,10214.842000,-74311.263306
4775.959217,14804.118840,6513.812290,-76456.330700
4775.961720,1924.535449,6957.935855,-75230.577904
4775.964223,16580.613101,7254.018232,-74004.825107
4775.966726,9030.512492,5625.565159,-74158.044206
4775.969229,11399.171507,7550.100608,-74924.139704
4775.971746,6365.771101,6513.812290,-74770.920605
4775.974263,4885.359217,8290.306550,-75230.577904
4775.976780,-4885.359217,2072.576638,-76149.892501
4775.979296,-4737.318029,7105.977043,-74004.825107
4775.981813,-6957.935855,8438.347739,-75077.358804
4775.984330,-2368.659014,10510.924376,-75843.454302
4775.986846,-592.164754,1332.370696,-75690.235202
4775.989363,-6217.729913,5773.606348,-73391.948708
4775.991880,1480.411884,7550.100608,-76609.549800
4775.994397,-10066.800811,10510.924376,-77069.207099
4775.996913,0.000000,5773.606348,-76609.549800
4775.999430,-9918.759623,4145.153275,-74464.482406
4776.001947,8290.306550,8438.347739,-74158.044206
4776.004464,-11695.253884,7550.100608,-74004.825107
4776.006980,-4145.153275,8882.471304,-74770.920605
4776.009497,-5921.647536,9030.512492,-76762.768900
4776.012014,-7994.224174,5773.606348,-75843.454302
4776.014530,-8438.347739,6957.935855,-74004.825107
4776.017047,-2664.741391,5033.400406,-75383.797003
4776.019564,-2960.823768,5921.647536,-75996.673402
4776.022081,148.041188,7994.224174,-74770.920605
4776.024597,-7105.977043,4589.276840,-75383.797003
4776.027114,7105.977043,1628.453072,-75996.673402
4776.029631,-1332.370696,10510.924376,-73545.167808
4776.032147,19393.395680,9918.759623,-75996.673402
4776.034664,9918.759623,7698.141797,-75077.358804
4776.037181,13175.665768,592.164754,-74311.263306
4776.039698,7402.059420,6365.771101,-73085.510509
4776.042214,-2072.576638,6217.729913,-75996.673402
4776.044731,4589.276840,10658.965565,-75230.577904
4776.047248,4737.318029,5921.647536,-74924.139704
4776.049764,13767.830521,6809.894666,-74464.482406
4776.052292,2516.700203,3849.070898,-74617.701505
4776.054819,8882.471304,7994.224174,-74311.263306
4776.057347,1628.453072,6513.812290,-75843.454302
4776.059874,5329.482782,8586.388927,-75996.673402
4776.062401,6661.853478,5181.441594,-75537.016103
4776.064929,16136.489536,7254.018232,-74158.044206
4776.067456,5773.606348,6217.729913,-74617.701505
4776.069983,20133.601622,5921.647536,-75230.577904
4776.072511,-3849.070898,8290.306550,-74770.920605
4776.075038,10955.047942,6069.688724,-75537.016103
4776.077566,-16432.571912,3701.029710,-75843.454302
4776.080093,740.205942,7550.100608,-74617.701505
4776.082620,-10658.965565,9474.636058,-75843.454302
4776.085148,1036.288319,7402.059420,-75690.235202
4776.087675,1628.453072,2664.741391,-74004.825107
4776.090202,-7402.059420,6069.688724,-74464.482406
4776.092730,-4293.194464,9622.677246,-75843.454302
4776.095257,-9474.636058,7254.018232,-76149.892501
4776.097785,-148.041188,6365.771101,-74464.482406
4776.100312,-1036.288319,296.082377,-74464.482406
4776.102839,-3552.988522,10066.800811,-73545.167808
4776.105367,3997.112087,6809.894666,-73698.386908
4776.107894,-1628.453072,8586.388927,-74311.263306
4776.110422,-14804.118840,7994.224174,-74617.701505
4776.112949,-2664.741391,3552.988522,-75077.358804
4776.115476,-7698.141797,6809.894666,-74770.920605
4776.118004,1184.329507,4737.318029,-75996.673402
4776.120531,-6957.935855,9770.718434,-74770.920605
4776.123058,888.247130,4145.153275,-76303.111601
4776.125586,3701.029710,5921.647536,-75077.358804
4776.128113,1332.370696,5033.400406,-75690.235202
4776.130641,9474.636058,10510.924376,-75843.454302
4776.133168,17912.983796,9622.677246,-76149.892501
4776.135695,6365.771101,2072.576638,-75077.358804
4776.138223,12139.377449,5625.565159,-73238.729609
4776.140750,-4737.318029,6957.935855,-76303.111601
4776.143277,9622.677246,10807.006753,-76149.892501
4776.145805,0.000000,4441.235652,-75690.235202
4776.148332,17616.901420,3404.947333,-76303.111601
4776.150860,3701.029710,8734.430116,-72779.072310
4776.153387,8882.471304,4589.276840,-73851.606007
4776.155914,2812.782580,8882.471304,-75383.797003
4776.158442,-888.247130,4441.235652,-75996.673402
4776.160969,12139.377449,8734.430116,-74924.139704
4776.163496,12435.459826,4145.153275,-75230.577904
4776.166024,8142.265362,6513.812290,-74158.044206
4776.168551,18653.189738,6217.729913,-75843.454302
4776.171079,-1924.535449,7698.141797,-74311.263306
4776.173616,12287.418637,5921.647536,-75996.673402
4776.176154,-16728.654289,3552.988522,-76303.111601
4776.178692,-740.205942,9326.594869,-75690.235202
4776.181230,-9178.553681,8734.430116,-75537.016103
4776.183768,2368.659014,5181.441594,-75230.577904
4776.186306,-1332.370696,2960.823768,-74311.263306
4776.188844,-5773.606348,6661.853478,-73545.167808
4776.191382,-3404.947333,9178.553681,-76149.892501
4776.193920,-9178.553681,9178.553681,-76456.330700
4776.196458,-1184.329507,6069.688724,-75843.454302
4776.198995,1480.411884,8438.347739,-72472.634111
4776.201533,6809.894666,4293.194464,-74004.825107
4776.204071,-9178.553681,4737.318029,-76456.330700
4776.206609,-2960.823768,8586.388927,-76915.987999
4776.209147,-10362.883188,3404.947333,-77069.207099
4776.211685,-5033.400406,10066.800811,-75230.577904
4776.214223,-8882.471304,2516.700203,-76915.987999
4776.216761,-1036.288319,8142.265362,-74924.139704
4776.219299,8734.430116,7402.059420,-75690.235202
4776.221837,-13323.706956,6365.771101,-75690.235202
4776.224374,8882.471304,4589.276840,-75383.797003
4776.226912,-7550.100608,5773.606348,-74311.263306
4776.229450,20577.725188,12435.459826,-76149.892501
4776.231988,5477.523971,7846.182985,-75383.797003
4776.234526,19837.519246,1184.329507,-75077.358804
4776.237064,3701.029710,3404.947333,-73085.510509
4776.239602,-4885.359217,8586.388927,-75690.235202
4776.242140,11991.336260,8882.471304,-77375.645298
4776.244678,-3404.947333,6217.729913,-74464.482406
4776.247216,26055.249158,6217.729913,-73851.606007
4776.249753,-8290.306550,4441.235652,-74158.044206
4776.252291,23390.507767,5773.606348,-75077.358804
4776.254803,-4145.153275,7550.100608,-75996.673402
4776.257316,6365.771101,9030.512492,-74311.263306
4776.259828,14804.118840,4145.153275,-76303.111601
4776.262340,10066.800811,6957.935855,-75996.673402
4776.264852,17320.819043,5625.565159,-75230.577904
4776.267364,9030.512492,6217.729913,-74311.263306
4776.269877,5477.523971,6513.812290,-74770.920605
4776.272389,3108.864956,6365.771101,-75077.358804
4776.274901,-10362.883188,4589.276840,-75230.577904
4776.277413,-8734.430116,8142.265362,-75537.016103
4776.279925,-1332.370696,9474.636058,-75230.577904
4776.282437,-2516.700203,2960.823768,-75230.577904
4776.284950,2812.782580,3108.864956,-73851.606007
4776.287462,-8882.471304,7698.141797,-74770.920605
4776.289974,-6069.688724,10955.047942,-75230.577904
4776.292486,-10807.006753,7254.018232,-76149.892501
4776.294998,740.205942,7402.059420,-73851.606007
4776.297511,-2220.617826,5773.606348,-73545.167808
4776.300023,-9326.594869,4293.194464,-75077.358804
4776.302535,2516.700203,9030.512492,-75230.577904
4776.305047,-11991.336260,5329.482782,-77069.207099
4776.307559,-5625.565159,9918.759623,-76456.330700
4776.310071,-17172.777854,5477.523971,-75383.797003
4776.312584,5773.606348,6365.771101,-74924.139704
4776.315096,-9918.759623,5329.482782,-74617.701505
4776.317608,6957.935855,7402.059420,-74924.139704
4776.320120,-6513.812290,5181.441594,-75383.797003
4776.322632,4145.153275,1924.535449,-76303.111601
4776.325145,2368.659014,10658.965565,-75537.016103
4776.327657,12879.583391,9178.553681,-75690.235202
4776.330169,17468.860231,6365.771101,-74617.701505
4776.332681,5921.647536,0.000000,-73085.510509
4776.335193,13027.624579,5625.565159,-74004.825107
4776.337705,-5477.523971,9918.759623,-76762.768900
4776.340218,-444.123565,7254.018232,-74924.139704
4776.342730,5033.400406,5329.482782,-73545.167808
4776.345242,16580.613101,6513.812290,-73391.948708
4776.347754,6513.812290,5773.606348,-73545.167808
4776.350266,9178.553681,5181.441594,-76149.892501
4776.352779,-3256.906145,7550.100608,-77222.426198
4776.355304,9918.759623,5921.647536,-77222.426198
4776.357830,7698.141797,8142.265362,-75843.454302
4776.360355,14211.954086,2960.823768,-75077.358804
4776.362881,14656.077652,9030.512492,-74924.139704
4776.365406,7254.018232,6069.688724,-75843.454302
4776.367932,8142.265362,8586.388927,-74158.044206
4776.370457,-11547.212695,2516.700203,-76149.892501
4776.372983,-7846.182985,8142.265362,-75690.235202
4776.375508,-6069.688724,9326.594869,-75383.797003
4776.378034,-1184.329507,8882.471304,-74158.044206
4776.380559,2516.700203,1628.453072,-73851.606007
4776.383085,-7994.224174,5625.565159,-74004.825107
4776.385610,148.041188,8438.347739,-76149.892501
4776.388136,-19689.478057,9622.677246,-76149.892501
4776.390662,148.041188,5329.482782,-74924.139704
4776.393187,592.164754,3404.947333,-73698.386908
4776.395713,0.000000,7105.977043,-72779.072310
4776.398238,-888.247130,8290.306550,-72166.195912
4776.400764,-3108.864956,6957.935855,-76762.768900
4776.403289,-17024.736666,9030.512492,-75690.235202
4776.405815,-7402.059420,6661.853478,-74004.825107
4776.408340,-6069.688724,5329.482782,-75077.358804
4776.410866,-3108.864956,6513.812290,-75383.797003
4776.413391,4145.153275,8142.265362,-74464.482406
4776.415917,-8734.430116,3108.864956,-75230.577904
4776.418442,5477.523971,5033.400406,-74924.139704
4776.420968,-1628.453072,7402.059420,-74770.920605
4776.423493,17616.901420,9770.718434,-76762.768900
4776.426019,12287.418637,7698.141797,-74770.920605
4776.428545,12879.583391,-296.082377,-74004.825107
4776.431070,9326.594869,5625.565159,-73391.948708
4776.433596,-1036.288319,6957.935855,-76303.111601
4776.436121,3849.070898,10807.006753,-76303.111601
4776.438647,4441.235652,6513.812290,-74158.044206
4776.441172,8438.347739,2220.617826,-74617.701505
4776.443698,9770.718434,6957.935855,-74617.701505
4776.446223,8290.306550,5329.482782,-73391.948708
4776.448749,1776.494261,7994.224174,-75077.358804
4776.451274,4145.153275,9326.594869,-75383.797003
4776.453800,10510.924376,4441.235652,-76303.111601
4776.456336,13471.748144,8142.265362,-73545.167808
4776.458873,14508.036463,5921.647536,-74004.825107
4776.461409,9326.594869,7698.141797,-75230.577904
4776.463945,14656.077652,5033.400406,-74924.139704
4776.466482,-18357.107362,4737.318029,-75230.577904
4776.469018,1184.329507,7846.182985,-75383.797003
4776.471554,-16284.530724,9918.759623,-76303.111601
4776.474091,8438.347739,7698.141797,-74924.139704
4776.476627,-6661.853478,1332.370696,-73851.606007
4776.479164,2664.741391,3404.947333,-74464.482406
4776.481700,-6957.935855,8586.388927,-75383.797003
4776.484236,-15100.201217,9918.759623,-75690.235202
4776.486773,-1628.453072,6365.771101,-75690.235202
4776.489309,-2664.741391,6661.853478,-75077.358804
4776.491845,7846.182985,2664.741391,-74617.701505
4776.494382,-3404.947333,6661.853478,-75077.358804
4776.496918,-7846.182985,6957.935855,-76915.987999
4776.499454,-3701.029710,8586.388927,-76762.768900
4776.501991,-19097.313304,7698.141797,-75690.235202
4776.504527,3404.947333,5329.482782,-74004.825107
4776.507063,-9770.718434,7105.977043,-75077.358804
4776.509600,10214.842000,6661.853478,-75843.454302
4776.512136,-10807.006753,5329.482782,-75690.235202
4776.514673,7402.059420,3552.988522,-75230.577904
4776.517209,-4441.235652,8586.388927,-75383.797003
4776.519745,13027.624579,11843.295072,-76609.549800
4776.522282,14063.912898,6957.935855,-75690.235202
4776.524818,7846.182985,888.247130,-72932.291410
4776.527354,15396.283594,4441.235652,-74617.701505
4776.529891,-3849.070898,9918.759623,-76456.330700
4776.532427,8882.471304,9030.512492,-76762.768900
4776.534963,-444.123565,6661.853478,-74464.482406
4776.537500,8882.471304,2516.700203,-74924.139704
4776.540036,18061.024985,2664.741391,-75690.235202
4776.542572,-2072.576638,7846.182985,-73238.729609
4776.545109,11991.336260,9178.553681,-75690.235202
4776.547645,-1924.535449,4441.235652,-75843.454302
4776.550182,19837.519246,7254.018232,-74924.139704
4776.552718,3701.029710,4885.359217,-74464.482406
4776.555254,25167.002028,7698.141797,-75690.235202
4776.557800,3256.906145,6365.771101,-74617.701505
4776.560345,5329.482782,6513.812290,-74158.044206
4776.562891,-10362.883188,4589.276840,-75537.016103
4776.565436,-10955.047942,9326.594869,-75690.235202
4776.567981,-3108.864956,8734.430116,-76303.111601
4776.570526,-3701.029710,5181.441594,-74464.482406
4776.573071,9326.594869,1628.453072,-73698.386908
4776.575616,-15100.201217,7105.977043,-73851.606007
4776.578161,444.123565,11695.253884,-75843.454302
4776.580706,-13619.789333,6365.771101,-77988.521696
4776.583252,148.041188,5773.606348,-74924.139704
4776.585797,2368.659014,6217.729913,-74924.139704
4776.588342,1924.535449,2664.741391,-75537.016103
4776.590887,-3552.988522,10214.842000,-74004.825107
4776.593432,-6661.853478,4885.359217,-76915.987999
4776.595977,-13027.624579,8882.471304,-76149.892501
4776.598522,1184.329507,6365.771101,-74770.920605
4776.601067,-14952.160028,5477.523971,-74770.920605
4776.603612,8734.430116,10214.842000,-75383.797003
4776.606158,-5477.523971,3701.029710,-74770.920605
4776.608703,3108.864956,4885.359217,-74004.825107
4776.611248,592.164754,5625.565159,-74464.482406
4776.613793,5625.565159,12583.501014,-76609.549800
4776.616338,14804.118840,9622.677246,-75996.673402
4776.618883,5773.606348,-592.164754,-73238.729609
4776.621428,15988.448347,4589.276840,-73545.167808
4776.623973,148.041188,6809.894666,-75537.016103
4776.626518,10807.006753,10214.842000,-77375.645298
4776.629064,-2664.741391,7698.141797,-75537.016103
4776.631609,11399.171507,7105.977043,-73851.606007
4776.634154,9622.677246,592.164754,-75383.797003
4776.636699,9030.512492,6217.729913,-74617.701505
4776.639244,3552.988522,7402.059420,-75230.577904
4776.641789,7402.059420,6513.812290,-76609.549800
4776.644334,8142.265362,8586.388927,-76456.330700
4776.646879,10214.842000,4885.359217,-75077.358804
4776.649425,15396.283594,9030.512492,-74617.701505
4776.651970,11991.336260,6069.688724,-74617.701505
4776.654515,5921.647536,6365.771101,-74464.482406
4776.657060,-3404.947333,1924.535449,-74924.139704
4776.659612,-7994.224174,8290.306550,-76303.111601
4776.662165,-6809.894666,9918.759623,-76915.987999
4776.664717,-1924.535449,6957.935855,-74158.044206
4776.667270,7105.977043,888.247130,-74004.825107
4776.669822,-8142.265362,5181.441594,-74004.825107
4776.672375,3997.112087,7846.182985,-76609.549800
4776.674927,-17024.736666,10214.842000,-76303.111601
4776.677480,-2220.617826,6069.688724,-75996.673402
4776.680032,-9326.594869,1776.494261,-76303.111601
4776.682585,19245.354492,1776.494261,-76149.892501
4776.685137,-15544.324782,9030.512492,-73238.729609
4776.687690,3404.947333,7846.182985,-75843.454302
4776.690242,-21910.095883,7402.059420,-75996.673402
4776.692795,-3849.070898,5329.482782,-76303.111601
4776.695347,-12287.418637,5329.482782,-74770.920605
4776.697900,2516.700203,10362.883188,-74004.825107
4776.700452,1480.411884,4885.359217,-74770.920605
4776.703005,-2368.659014,4145.153275,-73238.729609
4776.705557,4441.235652,4145.153275,-74004.825107
4776.708110,-148.041188,12583.501014,-75996.673402
4776.710662,18061.024985,9770.718434,-76915.987999
4776.713215,9474.636058,2812.782580,-74770.920605
4776.715767,13767.830521,-296.082377,-74464.482406
4776.718320,6661.853478,6217.729913,-74924.139704
4776.720872,-1332.370696,11251.130318,-75996.673402
4776.723425,6069.688724,8142.265362,-74464.482406
4776.725977,3701.029710,3108.864956,-75230.577904
4776.728530,17468.860231,8882.471304,-74617.701505
4776.731082,2812.782580,296.082377,-76762.768900
4776.733634,10658.965565,9030.512492,-74464.482406
4776.736187,5773.606348,7105.977043,-75077.358804
4776.738739,9326.594869,7254.018232,-76762.768900
4776.741292,10955.047942,8438.347739,-73545.167808
4776.743844,14508.036463,5625.565159,-74158.044206
4776.746397,7698.141797,9030.512492,-75383.797003
4776.748949,10066.800811,3701.029710,-75230.577904
4776.751502,-9622.677246,4737.318029,-74924.139704
4776.754054,-6365.771101,6809.894666,-76456.330700
4776.756607,-11251.130318,11991.336260,-76762.768900
4776.759159,148.041188,7402.059420,-75230.577904
4776.761718,2072.576638,1628.453072,-72779.072310
4776.764277,-5033.400406,5181.441594,-74004.825107
4776.766836,2516.700203,9326.594869,-76456.330700
4776.769395,-16876.695478,7698.141797,-77222.426198
4776.771954,-5625.565159,6217.729913,-74617.701505
4776.774513,-296.082377,7550.100608,-74311.263306
4776.777072,-148.041188,5329.482782,-74617.701505
4776.779631,8142.265362,4293.194464,-74158.044206
4776.782189,-9770.718434,10214.842000,-75996.673402
4776.784748,-9918.759623,8438.347739,-76609.549800
4776.787307,-10362.883188,5329.482782,-75996.673402
4776.789866,-8438.347739,5329.482782,-74004.825107
4776.792425,2812.782580,8882.471304,-74924.139704
4776.794984,-1776.494261,3552.988522,-75690.235202
4776.797543,4293.194464,4737.318029,-73698.386908
4776.800102,-1332.370696,4293.194464,-74770.920605
4776.802661,13471.748144,10955.047942,-77528.864398
4776.805220,6365.771101,10214.842000,-75077.358804
4776.807779,17616.901420,-1184.329507,-74004.825107
4776.810337,6069.688724,5773.606348,-71093.662214
4776.812896,9622.677246,5181.441594,-75537.016103
4776.815455,-4589.276840,11251.130318,-76149.892501
4776.818014,3404.947333,6661.853478,-75690.235202
4776.820573,12435.459826,6513.812290,-75996.673402
4776.823132,10807.006753,4589.276840,-74924.139704
4776.825691,4293.194464,6069.688724,-74004.825107
4776.828250,12139.377449,6957.935855,-74924.139704
4776.830809,444.123565,8438.347739,-76149.892501
4776.833368,17320.819043,6957.935855,-75230.577904
4776.835926,1184.329507,5477.523971,-75230.577904
4776.838485,26203.290347,8142.265362,-75690.235202
4776.841044,-1776.494261,7254.018232,-74464.482406
4776.843603,10214.842000,3997.112087,-75383.797003
4776.846162,-13915.871710,3404.947333,-75230.577904
4776.848721,-6661.853478,9770.718434,-75537.016103
4776.851280,-8734.430116,11251.130318,-76915.987999
4776.853839,1036.288319,3997.112087,-75077.358804
4776.856398,2960.823768,1776.494261,-72779.072310
4776.858957,-5181.441594,6513.812290,-74158.044206
4776.861515,888.247130,9474.636058,-77375.645298
4776.864079,-16136.489536,10066.800811,-75690.235202
4776.866643,-5033.400406,4145.153275,-75537.016103
4776.869206,3552.988522,4293.194464,-74924.139704
4776.871770,1332.370696,4737.318029,-75690.235202
4776.874333,-3849.070898,6513.812290,-74924.139704
4776.876897,-6809.894666,7402.059420,-74617.701505
4776.879461,-13027.624579,6661.853478,-75996.673402
4776.882024,-6513.812290,6809.894666,-74924.139704
4776.884588,-8142.265362,6365.771101,-74158.044206
4776.887151,-148.041188,7994.224174,-74924.139704
4776.889715,1776.494261,3849.070898,-76149.892501
4776.892279,1480.411884,2220.617826,-74158.044206
4776.894842,2072.576638,9474.636058,-74617.701505
4776.897406,6957.935855,12435.459826,-77528.864398
4776.899969,18949.272115,7550.100608,-75690.235202
4776.902533,4441.235652,0.000000,-72625.853210
4776.905097,15692.365970,4441.235652,-73698.386908
4776.907660,-4145.153275,10066.800811,-76609.549800
4776.910224,11695.253884,8882.471304,-75383.797003
4776.912787,-592.164754,7846.182985,-74617.701505
4776.915351,14952.160028,2516.700203,-75537.016103
4776.917915,1628.453072,7698.141797,-73851.606007
4776.920478,13767.830521,4293.194464,-74464.482406
4776.923042,1628.453072,9770.718434,-75537.016103
4776.925605,13471.748144,5773.606348,-76456.330700
4776.928169,5181.441594,4441.235652,-74770.920605
4776.930733,18505.148550,8734.430116,-74464.482406
4776.933296,6957.935855,7254.018232,-74004.825107
4776.935860,13323.706956,5773.606348,-75537.016103
4776.938423,-10066.800811,1776.494261,-75690.235202
4776.940987,-7105.977043,8290.306550,-74617.701505
4776.943551,-13323.706956,10362.883188,-76149.892501
4776.946114,-148.041188,8586.388927,-76303.111601
4776.948678,5033.400406,740.205942,-74158.044206
4776.951241,-3701.029710,6069.688724,-72625.853210
4776.953805,-2368.659014,7846.182985,-77222.426198
4776.956369,-14952.160028,12879.583391,-75383.797003
4776.958932,4885.359217,5773.606348,-75537.016103
4776.961496,-15692.365970,9326.594869,-73851.606007
4776.964059,16580.613101,1776.494261,-76609.549800
4776.966627,-16136.489536,5921.647536,-76609.549800
4776.969195,6217.729913,5625.565159,-75077.358804
4776.971763,-18949.272115,9030.512492,-76303.111601
4776.974330,-5921.647536,6513.812290,-74924.139704
4776.976898,-7846.182985,6069.688724,-75230.577904
4776.979466,-9030.512492,7846.182985,-75690.235202
4776.982033,11547.212695,4145.153275,-75843.454302
4776.984601,-6069.688724,1332.370696,-74464.482406
4776.987169,10955.047942,9326.594869,-74464.482406
4776.989736,1036.288319,11547.212695,-77528.864398
4776.992304,21317.931130,7698.141797,-76456.330700
4776.994872,444.123565,1036.288319,-72319.415011
4776.997440,19097.313304,2960.823768,-73238.729609
4777.000007,-3849.070898,10214.842000,-77069.207099
4777.002575,10658.965565,7402.059420,-77988.521696
4777.005143,148.041188,3701.029710,-76762.768900
4777.007710,15396.283594,9178.553681,-73851.606007
4777.010278,5477.523971,1332.370696,-75383.797003
4777.012846,8586.388927,9770.718434,-72779.072310
4777.015413,4293.194464,5181.441594,-75077.358804
4777.017981,9622.677246,9770.718434,-75996.673402
4777.020549,12287.418637,7254.018232,-74924.139704
4777.023117,10658.965565,6365.771101,-74004.825107
4777.025684,10362.883188,8734.430116,-74924.139704
4777.028252,6365.771101,3701.029710,-74924.139704
4777.030820,-5477.523971,4737.318029,-74464.482406
4777.033387,-6365.771101,5921.647536,-74924.139704
4777.035955,-10510.924376,12139.377449,-77222.426198
4777.038523,-592.164754,7402.059420,-75996.673402
4777.041090,-1036.288319,1332.370696,-72932.291410
4777.043658,-1776.494261,5329.482782,-72932.291410
4777.046226,-3701.029710,8586.388927,-76915.987999
4777.048794,-10807.006753,11695.253884,-75843.454302
4777.051361,-296.082377,6365.771101,-75383.797003
4777.053929,-11251.130318,740.205942,-75537.016103
4777.056497,7846.182985,10362.883188,-73391.948708
4777.059064,-3701.029710,5477.523971,-74617.701505
4777.061632,-9178.553681,7698.141797,-74924.139704
4777.064200,-14359.995275,10510.924376,-74617.701505
4777.066767,-13323.706956,5033.400406,-74158.044206
4777.069338,1628.453072,6809.894666,-74770.920605
4777.071908,-3108.864956,7698.141797,-74770.920605
4777.074478,2368.659014,5329.482782,-75077.358804
4777.077048,3552.988522,296.082377,-75230.577904
4777.079619,4441.235652,10658.965565,-75077.358804
4777.082189,9474.636058,11399.171507,-75843.454302
4777.084759,12879.583391,5625.565159,-75690.235202
4777.087329,7698.141797,740.205942,-72625.853210
4777.089900,14063.912898,3552.988522,-73851.606007
4777.092470,444.123565,9770.718434,-77069.207099
4777.095040,4737.318029,9030.512492,-77528.864398
4777.097610,7550.100608,8438.347739,-73851.606007
4777.100181,1924.535449,4293.194464,-73545.167808
4777.102751,7105.977043,7254.018232,-73545.167808
4777.105321,9030.512492,6661.853478,-74924.139704
4777.107891,6217.729913,7994.224174,-74464.482406
4777.110462,14211.954086,6661.853478,-75537.016103
4777.113032,7698.141797,5181.441594,-75996.673402
4777.115602,18209.066173,7254.018232,-74004.825107
4777.118172,3256.906145,7254.018232,-74770.920605
4777.120743,10658.965565,5625.565159,-74924.139704
4777.123313,-11547.212695,3108.864956,-74464.482406
4777.125883,-7994.224174,10658.965565,-75077.358804
4777.128453,-8290.306550,9770.718434,-77069.207099
4777.131024,-444.123565,6365.771101,-75077.358804
4777.133594,2368.659014,740.205942,-73238.729609
4777.136164,-3701.029710,6365.771101,-73545.167808
4777.138734,-2812.782580,9918.759623,-76762.768900
4777.141305,-9918.759623,11251.130318,-75537.016103
4777.143875,-5625.565159,6809.894666,-74770.920605
4777.146445,-4441.235652,4145.153275,-74464.482406
4777.149015,5625.565159,5773.606348,-74617.701505
4777.151586,-6365.771101,6513.812290,-75690.235202
4777.154156,-6069.688724,10066.800811,-75230.577904
4777.156726,-13027.624579,5181.441594,-77528.864398
4777.159296,-7994.224174,7105.977043,-75230.577904
4777.161866,-5033.400406,7402.059420,-74004.825107
4777.164437,-148.041188,8438.347739,-75077.358804
4777.167007,4145.153275,3997.112087,-74464.482406
4777.169577,3997.112087,5033.400406,-73391.948708
