#time,accel_x,accel_y,accel_z
26812.921272,10362.883188,6809.894666,-75383.797003
26812.923810,-4293.194464,4737.318029,-75383.797003
26812.926349,10362.883188,6809.894666,-75077.358804
26812.928887,2812.782580,-2220.617826,-77375.645298
26812.931426,3997.112087,740.205942,-75383.797003
26812.933964,148.041188,444.123565,-76149.892501
26812.936503,-1776.494261,2220.617826,-75690.235202
26812.939041,5181.441594,1184.329507,-76149.892501
26812.941580,-6365.771101,740.205942,-75230.577904
26812.944118,1036.288319,4589.276840,-76149.892501
26812.946657,5329.482782,5181.441594,-76762.768900
26812.949195,10214.842000,9918.759623,-75537.016103
26812.951733,2812.782580,10510.924376,-74311.263306
26812.954272,-6365.771101,11547.212695,-74464.482406
26812.956810,9918.759623,11991.336260,-74158.044206
26812.959349,-5329.482782,12435.459826,-74311.263306
26812.961887,-1036.288319,11695.253884,-75230.577904
26812.964426,1480.411884,8586.388927,-76149.892501
26812.966964,9622.677246,4589.276840,-76609.549800
26812.969532,-2516.700203,3701.029710,-74770.920605
26812.972099,-1184.329507,6069.688724,-75077.358804
26812.974666,2220.617826,6069.688724,-76456.330700
26812.977234,4145.153275,11695.253884,-76915.987999
26812.979801,0.000000,12583.501014,-76915.987999
26812.982369,-2516.700203,17616.901420,-73085.510509
26812.984936,7254.018232,3108.864956,-74924.139704
26812.987503,-3701.029710,5773.606348,-74770.920605
26812.990071,8142.265362,4885.359217,-76762.768900
26812.992638,-4293.194464,9622.677246,-77069.207099
26812.995205,8586.388927,8882.471304,-75537.016103
26812.997773,-6809.894666,8438.347739,-73238.729609
26813.000340,10658.965565,8142.265362,-73698.386908
26813.002908,-6217.729913,11843.295072,-72625.853210
26813.005475,8734.430116,15248.242405,-74004.825107
26813.008042,-3108.864956,16876.695478,-74311.263306
26813.010610,2220.617826,10955.047942,-75077.358804
26813.013177,3256.906145,4737.318029,-74617.701505
26813.015745,-4441.235652,5033.400406,-74924.139704
26813.018312,5625.565159,10362.883188,-75996.673402
26813.020879,1924.535449,12731.542202,-75383.797003
26813.023447,10214.842000,14359.995275,-74158.044206
26813.026014,3404.947333,8438.347739,-74311.263306
26813.028582,444.123565,888.247130,-74617.701505
26813.031149,-10510.924376,9474.636058,-74924.139704
26813.033716,7698.141797,13767.830521,-76456.330700
26813.036284,1184.329507,9326.594869,-75383.797003
26813.038851,2812.782580,3849.070898,-74004.825107
26813.041418,1036.288319,-7105.977043,-76762.768900
26813.043986,1776.494261,-740.205942,-73698.386908
26813.046553,3849.070898,4737.318029,-74004.825107
26813.049121,5181.441594,9622.677246,-76609.549800
26813.051688,-1480.411884,4441.235652,-75383.797003
26813.054255,6809.894666,444.123565,-74158.044206
26813.056823,-10362.883188,-296.082377,-74770.920605
26813.059390,4737.318029,4293.194464,-76456.330700
26813.061958,-3256.906145,8142.265362,-76149.892501
26813.064525,10066.800811,9622.677246,-75077.358804
26813.067092,2368.659014,2368.659014,-75996.673402
26813.069660,3256.906145,-444.123565,-75690.235202
26813.072242,-2072.576638,1480.411884,-75690.235202
26813.074825,-444.123565,4293.194464,-74770.920605
26813.077407,0.000000,6957.935855,-74924.139704
26813.079990,8734.430116,-1480.411884,-76149.892501
26813.082572,-10214.842000,9326.594869,-73238.729609
26813.085154,14359.995275,-296.082377,-75996.673402
26813.087737,-4441.235652,10807.006753,-73698.386908
26813.090319,-2368.659014,5033.400406,-75843.454302
26813.092902,9770.718434,5477.523971,-77835.302597
26813.095484,-4145.153275,5329.482782,-74617.701505
26813.098067,5329.482782,-3256.906145,-77528.864398
26813.100649,-1332.370696,148.041188,-76149.892501
26813.103232,3552.988522,-4145.153275,-77988.521696
26813.105814,-1628.453072,5329.482782,-75843.454302
26813.108397,9918.759623,3108.864956,-77375.645298
26813.110979,-4293.194464,10214.842000,-74311.263306
26813.113561,4589.276840,7994.224174,-75690.235202
26813.116144,-3108.864956,9178.553681,-74464.482406
26813.118726,-1924.535449,-296.082377,-76149.892501
26813.121309,12583.501014,-148.041188,-75537.016103
26813.123891,2960.823768,-2368.659014,-76303.111601
26813.126474,4885.359217,1924.535449,-75077.358804
26813.129056,3552.988522,9178.553681,-74311.263306
26813.131639,-7698.141797,4737.318029,-76456.330700
26813.134221,6661.853478,2072.576638,-75690.235202
26813.136804,-8142.265362,14211.954086,-72932.291410
26813.139386,10362.883188,18505.148550,-76762.768900
26813.141968,4145.153275,13619.789333,-76303.111601
26813.144551,2960.823768,9918.759623,-72625.853210
26813.147133,592.164754,740.205942,-74924.139704
26813.149716,6957.935855,6957.935855,-74617.701505
26813.152298,1332.370696,7254.018232,-75843.454302
26813.154881,-1628.453072,13471.748144,-75230.577904
26813.157463,4885.359217,8882.471304,-74617.701505
26813.160046,-2516.700203,8290.306550,-73085.510509
26813.162628,-740.205942,10066.800811,-74311.263306
26813.165211,-592.164754,11695.253884,-74770.920605
26813.167793,6957.935855,10658.965565,-75690.235202
26813.170375,4737.318029,8882.471304,-74924.139704
26813.172958,740.205942,6069.688724,-74924.139704
26813.175550,-592.164754,3701.029710,-75843.454302
26813.178143,3701.029710,8142.265362,-74770.920605
26813.180735,1332.370696,14063.912898,-75383.797003
26813.183327,1924.535449,6957.935855,-75690.235202
26813.185920,-888.247130,7254.018232,-74158.044206
26813.188512,2664.741391,3849.070898,-75537.016103
26813.191104,2960.823768,8438.347739,-75690.235202
26813.193697,-296.082377,9178.553681,-75996.673402
26813.196289,-740.205942,10955.047942,-74617.701505
26813.198882,1332.370696,7550.100608,-74617.701505
26813.201474,1776.494261,9622.677246,-75077.358804
26813.204066,2368.659014,13175.665768,-74004.825107
26813.206659,-888.247130,16284.530724,-74311.263306
26813.209251,3404.947333,13027.624579,-75537.016103
26813.211843,-6217.729913,10362.883188,-74004.825107
26813.214436,5625.565159,10658.965565,-73851.606007
26813.217028,3701.029710,9918.759623,-74311.263306
26813.219620,9770.718434,11103.089130,-76149.892501
26813.222213,-148.041188,8290.306550,-75383.797003
26813.224805,0.000000,2664.741391,-75537.016103
26813.227397,-6217.729913,5181.441594,-75843.454302
26813.229990,888.247130,15544.324782,-74770.920605
26813.232582,6365.771101,12731.542202,-75690.235202
26813.235175,-148.041188,2664.741391,-75077.358804
26813.237767,2516.700203,-5921.647536,-75383.797003
26813.240359,-2220.617826,-3849.070898,-75077.358804
26813.242952,6661.853478,1924.535449,-76303.111601
26813.245544,2368.659014,8734.430116,-76149.892501
26813.248136,592.164754,5773.606348,-75996.673402
26813.250729,8142.265362,3997.112087,-74004.825107
26813.253321,-12731.542202,1036.288319,-74770.920605
26813.255913,5329.482782,6513.812290,-75690.235202
26813.258506,-592.164754,5773.606348,-76149.892501
26813.261098,5181.441594,8142.265362,-75537.016103
26813.263691,3552.988522,592.164754,-76456.330700
26813.266283,444.123565,-592.164754,-75690.235202
26813.268875,-888.247130,-3701.029710,-76762.768900
26813.271468,1924.535449,3701.029710,-77988.521696
26813.274060,6069.688724,1480.411884,-78601.398095
26813.276652,-1184.329507,8290.306550,-76303.111601
26813.279246,6809.894666,4737.318029,-75230.577904
26813.281844,-2812.782580,1628.453072,-75077.358804
26813.284441,5181.441594,13175.665768,-73698.386908
26813.287039,-2664.741391,3849.070898,-74924.139704
26813.289637,4293.194464,6809.894666,-74004.825107
26813.292235,2516.700203,-1628.453072,-75843.454302
26813.294832,1332.370696,-1480.411884,-76915.987999
26813.297430,1184.329507,-4737.318029,-76303.111601
26813.300028,2960.823768,2960.823768,-75996.673402
26813.302626,2664.741391,3552.988522,-76456.330700
26813.305223,-1776.494261,8734.430116,-75383.797003
26813.307821,4589.276840,10807.006753,-74464.482406
26813.310419,-7994.224174,4737.318029,-75537.016103
26813.313017,7698.141797,740.205942,-75996.673402
26813.315614,5329.482782,-3701.029710,-75537.016103
26813.318212,3108.864956,740.205942,-76303.111601
26813.320810,3997.112087,2664.741391,-75690.235202
26813.323408,-2664.741391,8438.347739,-74924.139704
26813.326005,7550.100608,2664.741391,-76456.330700
26813.328603,-6809.894666,6661.853478,-73391.948708
26813.331201,148.041188,15988.448347,-74311.263306
26813.333799,11399.171507,19985.560434,-75537.016103
26813.336397,148.041188,14656.077652,-74770.920605
26813.338994,3552.988522,7698.141797,-73085.510509
26813.341592,296.082377,740.205942,-75077.358804
26813.344190,6217.729913,5773.606348,-75537.016103
26813.346788,-1924.535449,9770.718434,-75537.016103
26813.349385,3108.864956,9770.718434,-76149.892501
26813.351983,2812.782580,8290.306550,-74617.701505
26813.354581,1776.494261,10066.800811,-73238.729609
26813.357179,-6661.853478,11251.130318,-74617.701505
26813.359776,8438.347739,14508.036463,-74464.482406
26813.362374,2960.823768,9326.594869,-74924.139704
26813.364972,5033.400406,8734.430116,-72319.415011
26813.367570,-5033.400406,1480.411884,-75383.797003
26813.370167,-2368.659014,11251.130318,-72932.291410
26813.372765,6809.894666,2960.823768,-76149.892501
26813.375363,-5625.565159,25463.084405,-71553.319513
26813.377961,14656.077652,-148.041188,-78294.959896
26813.380558,-11399.171507,9030.512492,-74617.701505
26813.383157,12731.542202,5625.565159,-75077.358804
26813.385755,-6365.771101,6661.853478,-77069.207099
26813.388353,6217.729913,14952.160028,-75996.673402
26813.390951,-444.123565,8438.347739,-76149.892501
26813.393549,2812.782580,13915.871710,-74617.701505
26813.396147,2072.576638,10214.842000,-74770.920605
26813.398746,-444.123565,15692.365970,-74924.139704
26813.401344,-1628.453072,10066.800811,-75077.358804
26813.403942,296.082377,13619.789333,-76149.892501
26813.406540,8438.347739,8734.430116,-75690.235202
26813.409138,2664.741391,11547.212695,-73698.386908
26813.411737,10510.924376,5181.441594,-75537.016103
26813.414335,-8438.347739,2664.741391,-75996.673402
26813.416933,-148.041188,5033.400406,-74924.139704
26813.419531,-3256.906145,15100.201217,-75537.016103
26813.422129,7254.018232,15544.324782,-75690.235202
26813.424727,3849.070898,3701.029710,-75537.016103
26813.427326,740.205942,-5033.400406,-74464.482406
26813.429924,-1628.453072,-6957.935855,-75383.797003
26813.432522,8882.471304,2516.700203,-75843.454302
26813.435120,3701.029710,4737.318029,-77069.207099
26813.437718,3404.947333,7698.141797,-75383.797003
26813.440316,1332.370696,2812.782580,-74004.825107
26813.442915,-5329.482782,2220.617826,-74311.263306
26813.445513,-296.082377,5329.482782,-74770.920605
26813.448111,2516.700203,7994.224174,-76456.330700
26813.450709,4737.318029,9030.512492,-74924.139704
26813.453307,3552.988522,1480.411884,-75843.454302
26813.455905,3108.864956,-592.164754,-75690.235202
26813.458504,-740.205942,-2960.823768,-77835.302597
26813.461102,3256.906145,0.000000,-77988.521696
26813.463700,296.082377,4145.153275,-77835.302597
26813.466298,2812.782580,10510.924376,-74158.044206
26813.468896,4589.276840,4441.235652,-75996.673402
26813.471495,1480.411884,3701.029710,-74464.482406
26813.474093,888.247130,6217.729913,-74004.825107
26813.476691,1628.453072,2516.700203,-76609.549800
26813.479289,2368.659014,6661.853478,-75230.577904
26813.481887,3256.906145,-2664.741391,-75383.797003
26813.484485,3404.947333,-1924.535449,-74004.825107
26813.487083,-592.164754,-3701.029710,-75383.797003
26813.489681,0.000000,3997.112087,-74617.701505
26813.492279,5921.647536,8734.430116,-76609.549800
26813.494878,2812.782580,11251.130318,-74924.139704
26813.497476,-8586.388927,5921.647536,-75690.235202
26813.500074,6661.853478,-1332.370696,-75690.235202
26813.502672,7846.182985,-3108.864956,-75843.454302
26813.505270,0.000000,888.247130,-75077.358804
26813.507868,4885.359217,3997.112087,-75690.235202
26813.510466,-2516.700203,7105.977043,-74311.263306
26813.513064,4589.276840,740.205942,-77375.645298
26813.515662,-7105.977043,3404.947333,-74158.044206
26813.518260,-1036.288319,16580.613101,-74464.482406
26813.520858,14211.954086,20873.807564,-75996.673402
26813.523456,-3701.029710,16876.695478,-74770.920605
26813.526054,9918.759623,9030.512492,-73391.948708
26813.528652,-4441.235652,1480.411884,-74617.701505
26813.531250,7254.018232,5625.565159,-75077.358804
26813.533848,-1184.329507,9918.759623,-76149.892501
26813.536446,5625.565159,11547.212695,-76149.892501
26813.539044,1628.453072,9918.759623,-74770.920605
26813.541642,-1036.288319,9326.594869,-74158.044206
26813.544240,-6069.688724,9178.553681,-74617.701505
26813.546838,7698.141797,14063.912898,-75077.358804
26813.549436,4885.359217,14656.077652,-75383.797003
26813.552034,5921.647536,6957.935855,-76609.549800
26813.554632,-4293.194464,2812.782580,-75383.797003
26813.557230,1332.370696,9326.594869,-73698.386908
26813.559828,4737.318029,8586.388927,-75537.016103
26813.562426,-444.123565,11103.089130,-75843.454302
26813.565024,3849.070898,8882.471304,-75996.673402
26813.567622,296.082377,6661.853478,-75077.358804
26813.570219,4441.235652,8586.388927,-75077.358804
26813.572815,2960.823768,8438.347739,-75077.358804
26813.575411,-1036.288319,8734.430116,-74770.920605
26813.578008,2960.823768,11991.336260,-74158.044206
26813.580604,740.205942,12435.459826,-74924.139704
26813.583200,3849.070898,13471.748144,-75077.358804
26813.585797,-2664.741391,13175.665768,-74617.701505
26813.588393,1332.370696,14804.118840,-73851.606007
26813.590989,5773.606348,12287.418637,-74924.139704
26813.593586,8586.388927,12287.418637,-75690.235202
26813.596182,6513.812290,6365.771101,-75383.797003
26813.598778,-2664.741391,-1184.329507,-75690.235202
26813.601375,-5033.400406,5477.523971,-75230.577904
26813.603971,0.000000,14804.118840,-74617.701505
26813.606567,6217.729913,14508.036463,-75230.577904
26813.609164,1480.411884,3701.029710,-75230.577904
26813.611760,-444.123565,-3552.988522,-74004.825107
26813.614356,-740.205942,-6809.894666,-75537.016103
26813.616953,7254.018232,2220.617826,-76456.330700
26813.619549,6513.812290,6217.729913,-76762.768900
26813.622145,-444.123565,6365.771101,-76456.330700
26813.624742,6661.853478,2516.700203,-74464.482406
26813.627338,-8586.388927,0.000000,-74617.701505
26813.629934,1036.288319,5625.565159,-75230.577904
26813.632531,1480.411884,7105.977043,-76609.549800
26813.635127,3256.906145,9030.512492,-75383.797003
26813.637723,6069.688724,2960.823768,-76303.111601
26813.640320,-592.164754,1924.535449,-73238.729609
26813.642916,148.041188,-1184.329507,-74617.701505
26813.645512,1628.453072,8438.347739,-74617.701505
26813.648109,740.205942,2812.782580,-77375.645298
26813.650705,4737.318029,9770.718434,-75383.797003
26813.653301,3256.906145,6069.688724,-74924.139704
26813.655898,-592.164754,296.082377,-74924.139704
26813.658494,-148.041188,1776.494261,-75843.454302
26813.661090,1332.370696,3404.947333,-76149.892501
26813.663687,5181.441594,1332.370696,-75077.358804
26813.666283,740.205942,-740.205942,-73698.386908
26813.668879,2812.782580,-3108.864956,-74924.139704
26813.671476,-1036.288319,2812.782580,-73698.386908
26813.674072,1924.535449,4441.235652,-75537.016103
26813.676668,3552.988522,10807.006753,-74617.701505
26813.679265,-1036.288319,3256.906145,-76456.330700
26813.681861,6217.729913,148.041188,-76456.330700
26813.684457,10066.800811,-2072.576638,-75537.016103
26813.687054,-3256.906145,1776.494261,-74464.482406
26813.689650,3849.070898,7254.018232,-75383.797003
26813.692246,-888.247130,5625.565159,-76609.549800
26813.694840,6513.812290,1628.453072,-76762.768900
26813.697434,-6661.853478,4589.276840,-74004.825107
26813.700027,-1332.370696,15544.324782,-75843.454302
26813.702621,11547.212695,20873.807564,-74770.920605
26813.705214,-5033.400406,14211.954086,-73851.606007
26813.707808,6217.729913,6809.894666,-73391.948708
26813.710402,-3108.864956,3997.112087,-73851.606007
26813.712995,9030.512492,4885.359217,-75996.673402
26813.715589,-3108.864956,9622.677246,-75077.358804
26813.718182,4145.153275,9770.718434,-75230.577904
26813.720776,-592.164754,8882.471304,-74464.482406
26813.723369,-296.082377,10214.842000,-73851.606007
26813.725963,-5625.565159,12435.459826,-74770.920605
26813.728557,7698.141797,12583.501014,-77222.426198
26813.731150,3849.070898,11991.336260,-75996.673402
26813.733744,3256.906145,9918.759623,-74924.139704
26813.736337,-3849.070898,7550.100608,-74158.044206
26813.738931,3404.947333,4145.153275,-75843.454302
26813.741525,1036.288319,10214.842000,-74004.825107
26813.744118,0.000000,6513.812290,-76303.111601
26813.746712,2812.782580,9178.553681,-74004.825107
26813.749305,4737.318029,8586.388927,-73851.606007
26813.751899,444.123565,9326.594869,-73698.386908
26813.754493,1036.288319,8142.265362,-73851.606007
26813.757086,-148.041188,10510.924376,-72779.072310
26813.759680,3849.070898,9918.759623,-75230.577904
26813.762273,-1184.329507,15840.407159,-74924.139704
26813.764867,2960.823768,15100.201217,-75230.577904
26813.767461,0.000000,13323.706956,-74158.044206
26813.770054,6957.935855,15100.201217,-74311.263306
26813.772648,9326.594869,9178.553681,-75690.235202
26813.775241,-2220.617826,5921.647536,-74158.044206
26813.777754,148.041188,-148.041188,-75383.797003
26813.780266,-7105.977043,7402.059420,-75077.358804
26813.782778,8142.265362,13027.624579,-75537.016103
26813.785290,592.164754,7846.182985,-74617.701505
26813.787802,3997.112087,-888.247130,-75230.577904
26813.790315,-4737.318029,-5033.400406,-75537.016103
26813.792827,10066.800811,-296.082377,-76303.111601
26813.795339,296.082377,3552.988522,-77069.207099
26813.797851,8290.306550,7550.100608,-76303.111601
26813.800363,-3997.112087,4145.153275,-74770.920605
26813.802876,8290.306550,592.164754,-73851.606007
26813.805388,-9474.636058,592.164754,-76303.111601
26813.807900,4737.318029,6513.812290,-76609.549800
26813.810412,0.000000,7550.100608,-75843.454302
26813.812924,3849.070898,8734.430116,-75843.454302
26813.815437,5477.523971,592.164754,-76762.768900
26813.817949,-3701.029710,1924.535449,-74617.701505
26813.820461,6809.894666,3849.070898,-74004.825107
26813.822973,-1332.370696,-888.247130,-76762.768900
26813.825485,2664.741391,10066.800811,-75843.454302
26813.827998,4737.318029,8142.265362,-75537.016103
26813.830510,1184.329507,3404.947333,-75230.577904
26813.833022,2812.782580,-740.205942,-74464.482406
26813.835534,-444.123565,2812.782580,-74158.044206
26813.838046,3552.988522,1776.494261,-76149.892501
26813.840559,3701.029710,1036.288319,-76303.111601
26813.843071,740.205942,-1776.494261,-76609.549800
26813.845583,-4589.276840,1184.329507,-75230.577904
26813.848095,9178.553681,4293.194464,-75383.797003
26813.850607,-7550.100608,7994.224174,-75077.358804
26813.853120,6661.853478,4441.235652,-75690.235202
26813.855632,2516.700203,-444.123565,-76762.768900
26813.858144,13471.748144,3552.988522,-75230.577904
26813.860656,-5773.606348,2812.782580,-75537.016103
26813.863169,2368.659014,10066.800811,-74158.044206
26813.865681,5477.523971,592.164754,-76762.768900
26813.868193,-4441.235652,1924.535449,-75230.577904
26813.870705,-1184.329507,13175.665768,-73698.386908
26813.873217,1924.535449,16432.571912,-75996.673402
26813.875730,6069.688724,18209.066173,-75230.577904
26813.878261,-1628.453072,10510.924376,-73698.386908
26813.880793,2664.741391,4885.359217,-74464.482406
26813.883325,3404.947333,6661.853478,-74311.263306
26813.885856,2812.782580,8734.430116,-75383.797003
26813.888388,296.082377,9622.677246,-75996.673402
26813.890920,1184.329507,9030.512492,-74464.482406
26813.893452,148.041188,8142.265362,-74004.825107
26813.895983,-740.205942,10807.006753,-74004.825107
26813.898515,-148.041188,11547.212695,-75230.577904
26813.901047,3404.947333,14952.160028,-73085.510509
26813.903578,8142.265362,11695.253884,-73085.510509
26813.906110,-4145.153275,8586.388927,-74464.482406
26813.908642,888.247130,3701.029710,-74464.482406
26813.911174,2516.700203,7105.977043,-74311.263306
26813.913705,-1628.453072,10214.842000,-75383.797003
26813.916237,5329.482782,8438.347739,-75383.797003
26813.918769,0.000000,10362.883188,-74158.044206
26813.921300,5625.565159,9918.759623,-74924.139704
26813.923832,-1332.370696,7550.100608,-75383.797003
26813.926364,-148.041188,9918.759623,-73238.729609
26813.928896,4293.194464,14656.077652,-74311.263306
26813.931427,-1036.288319,14359.995275,-75996.673402
26813.933959,3404.947333,16284.530724,-75077.358804
26813.936491,1924.535449,14656.077652,-72779.072310
26813.939022,8438.347739,14063.912898,-73391.948708
26813.941554,7105.977043,8734.430116,-74770.920605
26813.944086,-3256.906145,1332.370696,-75843.454302
26813.946618,-2368.659014,2812.782580,-75996.673402
26813.949149,2812.782580,9770.718434,-76303.111601
26813.951681,5329.482782,11547.212695,-75230.577904
26813.954213,444.123565,2072.576638,-74617.701505
26813.956745,1776.494261,-1480.411884,-73851.606007
26813.959276,-444.123565,-2812.782580,-75230.577904
26813.961808,3701.029710,3256.906145,-75996.673402
26813.964340,4589.276840,5033.400406,-76609.549800
26813.966871,6957.935855,7105.977043,-75690.235202
26813.969403,2368.659014,-296.082377,-75230.577904
26813.971935,-444.123565,-888.247130,-75690.235202
26813.974467,-3552.988522,1480.411884,-76609.549800
26813.976998,1776.494261,6217.729913,-76915.987999
26813.979545,2664.741391,6513.812290,-75843.454302
26813.982092,4737.318029,3404.947333,-75077.358804
26813.984639,2072.576638,3256.906145,-73085.510509
26813.987186,-1332.370696,2960.823768,-71706.538613
26813.989734,5033.400406,1480.411884,-76762.768900
26813.992281,-2220.617826,8586.388927,-76762.768900
26813.994828,6809.894666,9030.512492,-77069.207099
26813.997375,888.247130,1184.329507,-76915.987999
26813.999922,4293.194464,2072.576638,-75537.016103
26814.002469,-1776.494261,-888.247130,-75996.673402
26814.005016,4441.235652,2072.576638,-79061.055394
26814.007563,2220.617826,1332.370696,-78141.740796
26814.010110,-740.205942,-1036.288319,-75537.016103
26814.012657,1924.535449,0.000000,-75230.577904
26814.015204,-2664.741391,2220.617826,-74770.920605
26814.017751,2516.700203,4589.276840,-75077.358804
26814.020298,-296.082377,4737.318029,-75230.577904
26814.022845,11251.130318,2368.659014,-75383.797003
26814.025392,5181.441594,4885.359217,-75383.797003
26814.027939,-1480.411884,5625.565159,-75077.358804
26814.030486,-1628.453072,3701.029710,-76303.111601
26814.033033,6365.771101,-888.247130,-75996.673402
26814.035580,-7254.018232,3701.029710,-73851.606007
26814.038127,740.205942,13471.748144,-74770.920605
26814.040674,7402.059420,20281.642811,-75690.235202
26814.043222,444.123565,16432.571912,-73851.606007
26814.045769,4293.194464,11695.253884,-72472.634111
26814.048316,-2072.576638,4293.194464,-74311.263306
26814.050863,9030.512492,7402.059420,-74924.139704
26814.053410,-888.247130,9474.636058,-75996.673402
26814.055957,444.123565,6809.894666,-75996.673402
26814.058504,4885.359217,8734.430116,-74311.263306
26814.061051,-3256.906145,10362.883188,-74158.044206
26814.063598,-1036.288319,15544.324782,-75230.577904
26814.066145,5921.647536,11991.336260,-77069.207099
26814.068692,888.247130,11399.171507,-75383.797003
26814.071239,6365.771101,7846.182985,-74464.482406
26814.073786,-1184.329507,2072.576638,-73085.510509
26814.076333,-1776.494261,9770.718434,-75690.235202
26814.078880,3552.988522,8882.471304,-75383.797003
26814.081371,8734.430116,3256.906145,-75537.016103
26814.083861,-592.164754,11103.089130,-74311.263306
26814.086351,6809.894666,6069.688724,-74924.139704
26814.088842,-3849.070898,8734.430116,-75077.358804
26814.091332,4737.318029,9622.677246,-75537.016103
26814.093823,-6217.729913,15396.283594,-74004.825107
26814.096313,8438.347739,15248.242405,-75230.577904
26814.098803,-4589.276840,17468.860231,-74770.920605
26814.101294,3997.112087,17320.819043,-72932.291410
26814.103784,10807.006753,10510.924376,-73698.386908
26814.106275,-1184.329507,7254.018232,-74617.701505
26814.108765,592.164754,-148.041188,-75996.673402
26814.111255,-7994.224174,7550.100608,-74770.920605
26814.113746,6957.935855,12879.583391,-75230.577904
26814.116236,5477.523971,7550.100608,-75843.454302
26814.118727,-148.041188,0.000000,-74464.482406
26814.121217,-740.205942,-5477.523971,-75690.235202
26814.123707,5033.400406,-592.164754,-76762.768900
26814.126198,3552.988522,4737.318029,-76915.987999
26814.128688,6365.771101,8586.388927,-75690.235202
26814.131179,1480.411884,2812.782580,-75537.016103
26814.133669,1776.494261,1036.288319,-73851.606007
26814.136159,-3849.070898,-2072.576638,-74924.139704
26814.138650,-888.247130,2368.659014,-75690.235202
26814.141140,1480.411884,6957.935855,-76303.111601
26814.143631,6809.894666,4737.318029,-76303.111601
26814.146121,1332.370696,3256.906145,-74924.139704
26814.148611,1628.453072,2664.741391,-73545.167808
26814.151102,-740.205942,7846.182985,-72625.853210
26814.153592,2664.741391,2368.659014,-75843.454302
26814.156083,-444.123565,3701.029710,-76456.330700
26814.158573,4441.235652,10955.047942,-73085.510509
26814.161063,2960.823768,1628.453072,-74617.701505
26814.163554,2960.823768,-1332.370696,-76149.892501
26814.166044,-296.082377,1480.411884,-75077.358804
26814.168535,2960.823768,296.082377,-74617.701505
26814.171025,-1184.329507,2368.659014,-74617.701505
26814.173515,5033.400406,0.000000,-76609.549800
26814.176006,-5625.565159,2220.617826,-74924.139704
26814.178496,4145.153275,-296.082377,-75690.235202
26814.181013,2368.659014,2664.741391,-75383.797003
26814.183529,8438.347739,5773.606348,-75383.797003
26814.186046,3108.864956,7105.977043,-75077.358804
26814.188562,-740.205942,9030.512492,-74464.482406
26814.191079,-296.082377,1628.453072,-75996.673402
26814.193595,3108.864956,-1036.288319,-74770.920605
26814.196112,-2812.782580,4293.194464,-74464.482406
26814.198628,-296.082377,15840.407159,-75537.016103
26814.201145,9770.718434,20281.642811,-74617.701505
26814.203661,-2812.782580,12139.377449,-74004.825107
26814.206178,3552.988522,8290.306550,-73085.510509
26814.208694,148.041188,6957.935855,-73698.386908
26814.211211,9918.759623,8586.388927,-75230.577904
26814.213727,-1776.494261,10214.842000,-75996.673402
26814.216244,1036.288319,6957.935855,-75537.016103
26814.218760,6365.771101,6513.812290,-74770.920605
26814.221277,-4589.276840,9030.512492,-73851.606007
26814.223793,-888.247130,16432.571912,-73085.510509
26814.226310,3404.947333,13471.748144,-74617.701505
26814.228826,6217.729913,9030.512492,-74004.825107
26814.231343,-1184.329507,6661.853478,-71706.538613
26814.233859,-1184.329507,3997.112087,-73698.386908
26814.236376,1184.329507,12287.418637,-74311.263306
26814.238892,4145.153275,7846.182985,-74770.920605
26814.241409,-444.123565,7402.059420,-75230.577904
26814.243925,-1184.329507,11251.130318,-75383.797003
26814.246442,3108.864956,4885.359217,-76609.549800
26814.248958,444.123565,10807.006753,-74464.482406
26814.251475,1184.329507,11103.089130,-75230.577904
26814.253991,2960.823768,18653.189738,-74770.920605
26814.256508,740.205942,17616.901420,-75537.016103
26814.259024,5477.523971,19837.519246,-73238.729609
26814.261541,7105.977043,11991.336260,-73851.606007
26814.264057,1924.535449,5033.400406,-74770.920605
26814.266574,3997.112087,-740.205942,-75690.235202
26814.269090,-10214.842000,7550.100608,-75537.016103
26814.271607,9474.636058,14211.954086,-76456.330700
26814.274123,2664.741391,8438.347739,-75537.016103
26814.276640,-1184.329507,-296.082377,-74004.825107
26814.279156,888.247130,-6217.729913,-74617.701505
26814.281692,740.205942,-296.082377,-75690.235202
26814.284228,2812.782580,5033.400406,-76609.549800
26814.286765,9326.594869,8586.388927,-75077.358804
26814.289301,-296.082377,3404.947333,-75690.235202
26814.291838,1776.494261,-296.082377,-73698.386908
26814.294374,-2516.700203,-2664.741391,-75690.235202
26814.296910,-2812.782580,2072.576638,-75383.797003
26814.299447,4293.194464,6217.729913,-76149.892501
26814.301983,3701.029710,4737.318029,-74770.920605
26814.304520,1480.411884,4293.194464,-73085.510509
26814.307056,4885.359217,5625.565159,-74617.701505
26814.309592,-2220.617826,148.041188,-75230.577904
26814.312129,2812.782580,6957.935855,-74617.701505
26814.314665,740.205942,8438.347739,-75690.235202
26814.317202,3997.112087,8290.306550,-74158.044206
26814.319738,1628.453072,0.000000,-75996.673402
26814.322274,-592.164754,-296.082377,-76149.892501
26814.324811,1924.535449,-1776.494261,-76915.987999
26814.327347,-148.041188,444.123565,-75230.577904
26814.329884,3256.906145,1776.494261,-75996.673402
26814.332420,-3108.864956,0.000000,-75996.673402
26814.334956,888.247130,-1036.288319,-75690.235202
26814.337493,1480.411884,592.164754,-74770.920605
26814.340029,11103.089130,3701.029710,-75537.016103
26814.342566,4737.318029,8882.471304,-75077.358804
26814.345102,-3108.864956,10658.965565,-74311.263306
26814.347638,2220.617826,1628.453072,-75230.577904
26814.350175,0.000000,-2812.782580,-74924.139704
26814.352711,-5181.441594,3849.070898,-73391.948708
26814.355248,3997.112087,14211.954086,-75690.235202
26814.357784,3552.988522,21614.013506,-74464.482406
26814.360321,2516.700203,15988.448347,-73391.948708
26814.362857,4441.235652,10214.842000,-72012.976812
26814.365393,-5477.523971,5773.606348,-74770.920605
26814.367930,15248.242405,10658.965565,-75690.235202
26814.370466,-2812.782580,11991.336260,-75537.016103
26814.373003,2812.782580,5625.565159,-76303.111601
26814.375539,1332.370696,5329.482782,-74311.263306
26814.378075,740.205942,5921.647536,-73545.167808
26814.380612,-2516.700203,13175.665768,-75996.673402
26814.383164,5329.482782,17912.983796,-75537.016103
26814.385716,3849.070898,13175.665768,-75843.454302
26814.388268,1628.453072,2072.576638,-75996.673402
26814.390819,-592.164754,2072.576638,-74770.920605
26814.393371,-148.041188,10807.006753,-75230.577904
26814.395923,6365.771101,8882.471304,-77375.645298
26814.398475,-4589.276840,10658.965565,-75996.673402
26814.401027,3997.112087,8142.265362,-75230.577904
26814.403579,1036.288319,5921.647536,-75843.454302
26814.406131,-148.041188,9326.594869,-75383.797003
26814.408683,6513.812290,16136.489536,-74617.701505
26814.411235,-2664.741391,19837.519246,-74617.701505
26814.413787,8290.306550,19541.436869,-74311.263306
26814.416339,3256.906145,14508.036463,-73698.386908
26814.418890,10214.842000,9326.594869,-72932.291410
26814.421442,-7105.977043,-148.041188,-75383.797003
26814.423994,-2812.782580,2812.782580,-75383.797003
26814.426546,-2072.576638,9770.718434,-75843.454302
26814.429098,6957.935855,11843.295072,-76915.987999
26814.431650,3404.947333,1036.288319,-74924.139704
26814.434202,148.041188,-4293.194464,-74617.701505
26814.436754,-296.082377,-2812.782580,-75843.454302
26814.439306,5773.606348,3701.029710,-75537.016103
26814.441858,3997.112087,7105.977043,-76762.768900
26814.444410,7402.059420,7698.141797,-76303.111601
26814.446961,-2516.700203,1332.370696,-74464.482406
26814.449513,1184.329507,-1480.411884,-74770.920605
26814.452065,-6217.729913,444.123565,-75537.016103
26814.454617,6661.853478,5773.606348,-76915.987999
26814.457169,-1036.288319,8142.265362,-76456.330700
26814.459721,8438.347739,1480.411884,-77682.083497
26814.462273,444.123565,-148.041188,-76915.987999
26814.464825,-148.041188,8290.306550,-74311.263306
26814.467377,4293.194464,3552.988522,-76915.987999
26814.469929,-3404.947333,6957.935855,-76762.768900
26814.472481,5477.523971,5921.647536,-76915.987999
26814.475032,1776.494261,1628.453072,-75230.577904
26814.477584,3256.906145,-1776.494261,-72779.072310
26814.480136,296.082377,296.082377,-73698.386908
26814.482688,2368.659014,740.205942,-76456.330700
26814.485193,1924.535449,2368.659014,-75843.454302
26814.487699,-3849.070898,1036.288319,-76762.768900
26814.490204,3849.070898,-1628.453072,-76456.330700
26814.492709,4737.318029,-888.247130,-75537.016103
26814.495215,9030.512492,5921.647536,-74311.263306
26814.497720,-1628.453072,10807.006753,-75077.358804
26814.500225,1480.411884,13175.665768,-75230.577904
26814.502730,4293.194464,-1332.370696,-75690.235202
26814.505236,-6069.688724,-2220.617826,-75383.797003
26814.507741,2664.741391,7550.100608,-75230.577904
26814.510246,-296.082377,14804.118840,-77528.864398
26814.512751,8438.347739,19837.519246,-74924.139704
26814.515257,-1036.288319,12435.459826,-73391.948708
26814.517762,888.247130,6661.853478,-73545.167808
26814.520267,592.164754,6661.853478,-74770.920605
26814.522773,3701.029710,11695.253884,-76149.892501
26814.525278,2960.823768,11103.089130,-76456.330700
26814.527783,-592.164754,6957.935855,-75537.016103
26814.530288,4737.318029,5033.400406,-74158.044206
26814.532794,-3849.070898,10510.924376,-74311.263306
26814.535299,444.123565,14656.077652,-77069.207099
26814.537804,-148.041188,18061.024985,-75230.577904
26814.540309,7105.977043,9770.718434,-75230.577904
26814.542815,-444.123565,2072.576638,-73545.167808
26814.545320,-7254.018232,7698.141797,-74311.263306
26814.547825,12287.418637,9770.718434,-73698.386908
26814.550330,-3108.864956,11991.336260,-74004.825107
26814.552836,1776.494261,13027.624579,-75077.358804
26814.555341,4145.153275,3849.070898,-76762.768900
26814.557846,-1628.453072,8734.430116,-75996.673402
26814.560352,6513.812290,10214.842000,-74924.139704
26814.562857,-8882.471304,17616.901420,-74617.701505
26814.565362,12731.542202,21910.095883,-74311.263306
26814.567867,3256.906145,15692.365970,-73545.167808
26814.570373,5329.482782,9918.759623,-72779.072310
26814.572878,-3849.070898,-3404.947333,-75383.797003
26814.575383,-6661.853478,3552.988522,-75383.797003
26814.577888,3849.070898,12731.542202,-76149.892501
26814.580394,4589.276840,12435.459826,-77375.645298
26814.582899,-148.041188,-1184.329507,-74311.263306
26814.585427,-740.205942,-8586.388927,-74464.482406
26814.587955,-2664.741391,-3849.070898,-76149.892501
26814.590483,7254.018232,6217.729913,-76609.549800
26814.593011,4885.359217,9326.594869,-77835.302597
26814.595539,7994.224174,7994.224174,-75996.673402
26814.598068,-3701.029710,1332.370696,-74004.825107
26814.600596,2812.782580,-2960.823768,-74770.920605
26814.603124,-6957.935855,-1332.370696,-75996.673402
26814.605652,8882.471304,5329.482782,-76149.892501
26814.608180,-2368.659014,3552.988522,-77835.302597
26814.610708,5625.565159,1036.288319,-77222.426198
26814.613236,2812.782580,-1628.453072,-75690.235202
26814.615764,-2812.782580,6069.688724,-72625.853210
26814.618292,3997.112087,8438.347739,-74770.920605
26814.620820,-296.082377,6217.729913,-76149.892501
26814.623349,740.205942,7550.100608,-74770.920605
26814.625877,2960.823768,1036.288319,-75690.235202
26814.628405,0.000000,-2220.617826,-77988.521696
26814.630933,1480.411884,-1184.329507,-77375.645298
26814.633461,2220.617826,-888.247130,-76303.111601
26814.635989,-2220.617826,2368.659014,-75843.454302
26814.638517,4145.153275,-2516.700203,-78141.740796
26814.641045,1036.288319,-148.041188,-76149.892501
26814.643573,10066.800811,2072.576638,-75690.235202
26814.646101,0.000000,10214.842000,-73851.606007
26814.648630,-1184.329507,12879.583391,-73698.386908
26814.651158,4293.194464,3404.947333,-75537.016103
26814.653686,-2220.617826,-2220.617826,-75537.016103
26814.656214,-3256.906145,3849.070898,-73851.606007
26814.658742,4589.276840,13619.789333,-75843.454302
26814.661270,5773.606348,19541.436869,-75843.454302
26814.663798,-2516.700203,17468.860231,-72779.072310
26814.666326,1628.453072,8882.471304,-74004.825107
26814.668854,888.247130,7846.182985,-74311.263306
26814.671382,6513.812290,8438.347739,-76303.111601
26814.673910,4589.276840,11991.336260,-76456.330700
26814.676439,-1776.494261,4737.318029,-76609.549800
26814.678967,3849.070898,5773.606348,-74770.920605
26814.681495,1628.453072,4441.235652,-74311.263306
26814.684023,-2960.823768,15396.283594,-72166.195912
26814.686569,10214.842000,20873.807564,-75230.577904
26814.689115,-1776.494261,7402.059420,-76609.549800
26814.691661,6513.812290,3552.988522,-75537.016103
26814.694206,0.000000,1776.494261,-76609.549800
26814.696752,-3108.864956,7105.977043,-76915.987999
26814.699298,8438.347739,12583.501014,-75383.797003
26814.701844,-4589.276840,11103.089130,-73698.386908
26814.704390,9178.553681,10955.047942,-74158.044206
26814.706936,-1628.453072,7402.059420,-75230.577904
26814.709482,-148.041188,13767.830521,-73851.606007
26814.712028,6957.935855,20133.601622,-74770.920605
26814.714574,740.205942,23094.425390,-74617.701505
26814.717120,14211.954086,15544.324782,-74464.482406
26814.719666,-7550.100608,8290.306550,-73238.729609
26814.722211,6957.935855,-1332.370696,-74158.044206
26814.724757,-11103.089130,6217.729913,-74311.263306
26814.727303,4589.276840,15692.365970,-76149.892501
26814.729849,5329.482782,3552.988522,-77222.426198
26814.732395,-888.247130,-5921.647536,-74617.701505
26814.734941,1776.494261,-9770.718434,-75843.454302
26814.737487,-4885.359217,-2664.741391,-75537.016103
26814.740033,10066.800811,8882.471304,-76149.892501
26814.742579,4293.194464,11399.171507,-76303.111601
26814.745125,5329.482782,7994.224174,-75230.577904
26814.747670,2368.659014,-1480.411884,-74158.044206
26814.750216,-5773.606348,-3108.864956,-75537.016103
26814.752762,444.123565,296.082377,-76456.330700
26814.755308,5921.647536,4145.153275,-77682.083497
26814.757854,1776.494261,6217.729913,-77222.426198
26814.760400,5477.523971,6217.729913,-74004.825107
26814.762946,592.164754,296.082377,-74004.825107
26814.765492,-444.123565,3552.988522,-74311.263306
26814.768051,888.247130,6365.771101,-76149.892501
26814.770610,1776.494261,7550.100608,-77835.302597
26814.773169,4737.318029,3256.906145,-78141.740796
26814.775728,296.082377,-2664.741391,-77222.426198
26814.778287,1184.329507,-1924.535449,-75383.797003
26814.780846,296.082377,-4293.194464,-76303.111601
26814.783405,-2664.741391,3108.864956,-75383.797003
26814.785965,3404.947333,-740.205942,-77528.864398
26814.788524,9474.636058,-888.247130,-76456.330700
26814.791083,4145.153275,4737.318029,-74770.920605
26814.793642,2368.659014,7698.141797,-74617.701505
26814.796201,-1480.411884,11547.212695,-74311.263306
26814.798760,2960.823768,3108.864956,-75690.235202
26814.801319,-2516.700203,-740.205942,-74924.139704
26814.803878,-1184.329507,2960.823768,-74311.263306
26814.806437,2664.741391,12435.459826,-75843.454302
26814.808996,4145.153275,18653.189738,-76609.549800
26814.811555,4737.318029,16432.571912,-73851.606007
26814.814115,-1776.494261,11103.089130,-73391.948708
26814.816674,2516.700203,8882.471304,-73698.386908
26814.819233,10510.924376,8882.471304,-76609.549800
26814.821792,2664.741391,10658.965565,-75383.797003
26814.824351,-2220.617826,5477.523971,-76149.892501
26814.826910,592.164754,6069.688724,-74464.482406
26814.829469,5625.565159,6217.729913,-75383.797003
26814.832028,-2664.741391,11695.253884,-72932.291410
26814.834587,12287.418637,21317.931130,-72625.853210
26814.837146,-2072.576638,8290.306550,-73851.606007
26814.839706,3701.029710,2368.659014,-75537.016103
26814.842265,-4589.276840,8142.265362,-72779.072310
26814.844824,10214.842000,2516.700203,-76762.768900
26814.847383,-5329.482782,14952.160028,-73851.606007
26814.849942,11399.171507,10214.842000,-72932.291410
26814.852501,-8290.306550,5921.647536,-75383.797003
26814.855060,7846.182985,9030.512492,-74924.139704
26814.857619,-2220.617826,14804.118840,-74158.044206
26814.860178,6365.771101,23242.466579,-75383.797003
26814.862737,7105.977043,19837.519246,-74924.139704
26814.865296,1332.370696,15988.448347,-73851.606007
26814.867856,4885.359217,2516.700203,-75383.797003
26814.870425,-14211.954086,3256.906145,-75077.358804
26814.872994,9326.594869,12435.459826,-76149.892501
26814.875563,2220.617826,5625.565159,-77528.864398
26814.878132,2664.741391,-4441.235652,-75537.016103
26814.880701,-1184.329507,-10510.924376,-75383.797003
26814.883270,-1480.411884,-4293.194464,-74924.139704
26814.885839,3701.029710,7550.100608,-75383.797003
26814.888408,7105.977043,13471.748144,-75690.235202
26814.890977,5181.441594,9770.718434,-75690.235202
26814.893546,-1036.288319,2960.823768,-74004.825107
26814.896115,-444.123565,-2664.741391,-74770.920605
26814.898684,-740.205942,-3849.070898,-76456.330700
26814.901253,592.164754,-1776.494261,-76915.987999
26814.903822,4145.153275,5477.523971,-77375.645298
26814.906391,1924.535449,10510.924376,-74617.701505
26814.908960,5625.565159,592.164754,-75996.673402
26814.911529,-3404.947333,1036.288319,-75077.358804
26814.914098,1924.535449,4885.359217,-73238.729609
26814.916667,3701.029710,6365.771101,-76149.892501
26814.919236,2072.576638,9326.594869,-76762.768900
26814.921805,3701.029710,-3256.906145,-77988.521696
26814.924374,-296.082377,-2664.741391,-73545.167808
26814.926943,-1776.494261,-3404.947333,-74924.139704
26814.929512,-2368.659014,-296.082377,-76303.111601
26814.932081,6513.812290,296.082377,-76609.549800
26814.934650,7105.977043,2368.659014,-75537.016103
26814.937219,6217.729913,7105.977043,-75537.016103
26814.939788,-2664.741391,6957.935855,-74770.920605
26814.942357,-1480.411884,10955.047942,-74770.920605
26814.944926,3108.864956,0.000000,-77069.207099
26814.947495,-2516.700203,-296.082377,-74770.920605
26814.950064,3849.070898,9770.718434,-75230.577904
26814.952633,4737.318029,14656.077652,-76915.987999
26814.955202,2072.576638,16580.613101,-74004.825107
26814.957771,2664.741391,14211.954086,-72166.195912
26814.960340,-2220.617826,9918.759623,-74004.825107
26814.962909,4737.318029,11547.212695,-74158.044206
26814.965478,10066.800811,8734.430116,-76149.892501
26814.968047,-2516.700203,9326.594869,-75383.797003
26814.970616,2368.659014,4737.318029,-74770.920605
26814.973193,-2960.823768,5033.400406,-73698.386908
26814.975770,6217.729913,12879.583391,-72472.634111
26814.978346,-7254.018232,14211.954086,-73238.729609
26814.980923,12287.418637,11547.212695,-75843.454302
26814.983500,0.000000,4885.359217,-73545.167808
26814.986077,-2220.617826,4441.235652,-73085.510509
26814.988654,8438.347739,5921.647536,-76456.330700
26814.991231,740.205942,11991.336260,-74158.044206
26814.993808,-444.123565,12287.418637,-73698.386908
26814.996385,296.082377,7402.059420,-75383.797003
26814.998962,2368.659014,10807.006753,-74617.701505
26815.001538,2368.659014,10807.006753,-75230.577904
26815.004115,3701.029710,22354.219448,-73391.948708
26815.006692,9178.553681,20429.683999,-75690.235202
26815.009269,-5033.400406,17616.901420,-73391.948708
26815.011846,6217.729913,5181.441594,-75690.235202
26815.014423,-11991.336260,3404.947333,-74617.701505
26815.017000,6661.853478,8586.388927,-76149.892501
26815.019577,6365.771101,6513.812290,-77835.302597
26815.022153,-2072.576638,-3552.988522,-76762.768900
26815.024730,2072.576638,-8882.471304,-75537.016103
26815.027307,888.247130,-5033.400406,-75537.016103
26815.029884,2368.659014,5033.400406,-75843.454302
26815.032461,6809.894666,11843.295072,-76149.892501
26815.035038,5181.441594,10214.842000,-75383.797003
26815.037615,-592.164754,4737.318029,-73545.167808
26815.040192,444.123565,-3849.070898,-74924.139704
26815.042769,-1776.494261,-4589.276840,-75843.454302
26815.045345,-1776.494261,-1332.370696,-77069.207099
26815.047922,8290.306550,4441.235652,-76456.330700
26815.050499,1332.370696,11843.295072,-74770.920605
26815.053076,5773.606348,2368.659014,-75537.016103
26815.055653,-4441.235652,-888.247130,-74770.920605
26815.058230,-1480.411884,9178.553681,-72779.072310
26815.060807,8290.306550,4145.153275,-77988.521696
26815.063384,-592.164754,7550.100608,-77375.645298
26815.065961,10510.924376,-1184.329507,-74617.701505
26815.068537,-3849.070898,-5181.441594,-73698.386908
26815.071114,-3256.906145,-4145.153275,-76609.549800
26815.073691,296.082377,-1628.453072,-76303.111601
26815.076225,8586.388927,1332.370696,-77222.426198
26815.078758,11399.171507,6365.771101,-75843.454302
26815.081291,444.123565,8142.265362,-75077.358804
26815.083825,-592.164754,8290.306550,-74311.263306
26815.086358,-740.205942,5329.482782,-74770.920605
26815.088891,592.164754,-296.082377,-74924.139704
26815.091424,-5477.523971,6661.853478,-74158.044206
26815.093958,6957.935855,11695.253884,-77222.426198
26815.096491,888.247130,17764.942608,-75383.797003
26815.099024,1332.370696,12731.542202,-73085.510509
26815.101558,740.205942,13175.665768,-72625.853210
26815.104091,-3108.864956,8142.265362,-74770.920605
26815.106624,11991.336260,14359.995275,-75230.577904
26815.109158,6661.853478,9474.636058,-76303.111601
26815.111691,-3701.029710,8290.306550,-75690.235202
26815.114224,1184.329507,7105.977043,-73851.606007
26815.116758,888.247130,5033.400406,-76149.892501
26815.119291,-2664.741391,14063.912898,-76609.549800
26815.121824,5773.606348,18505.148550,-75690.235202
26815.124358,4589.276840,6365.771101,-75690.235202
26815.126891,2072.576638,3404.947333,-74770.920605
26815.129424,296.082377,4293.194464,-75230.577904
26815.131958,1924.535449,6809.894666,-75230.577904
26815.134491,3849.070898,12287.418637,-76303.111601
26815.137024,-1184.329507,9178.553681,-76303.111601
26815.139558,4293.194464,9770.718434,-75690.235202
26815.142091,3849.070898,12731.542202,-74004.825107
26815.144624,2220.617826,21021.848753,-75230.577904
26815.147158,9474.636058,18949.272115,-74617.701505
26815.149691,-3849.070898,17912.983796,-74158.044206
26815.152224,5181.441594,3256.906145,-75230.577904
26815.154758,-10807.006753,2960.823768,-75383.797003
26815.157291,9918.759623,11843.295072,-75230.577904
26815.159824,1036.288319,6809.894666,-77222.426198
26815.162358,2960.823768,-2812.782580,-75996.673402
26815.164891,-1036.288319,-8882.471304,-74770.920605
26815.167424,296.082377,-3256.906145,-74617.701505
26815.169958,5329.482782,1628.453072,-76456.330700
26815.172491,1924.535449,11251.130318,-75690.235202
26815.175024,8586.388927,8438.347739,-76609.549800
26815.177572,-3404.947333,4885.359217,-73391.948708
26815.180121,1480.411884,-2516.700203,-74464.482406
26815.182669,-2368.659014,-3552.988522,-76762.768900
26815.185217,-740.205942,2812.782580,-74617.701505
26815.187766,7846.182985,3404.947333,-74924.139704
26815.190314,1184.329507,12879.583391,-74311.263306
26815.192862,6069.688724,3701.029710,-76149.892501
26815.195410,-1776.494261,-2812.782580,-74617.701505
26815.197959,-2516.700203,4293.194464,-75690.235202
26815.200507,5181.441594,6069.688724,-75537.016103
26815.203055,2664.741391,5181.441594,-75690.235202
26815.205603,3404.947333,1036.288319,-75230.577904
26815.208152,-2368.659014,-4885.359217,-74924.139704
26815.210700,-148.041188,-6069.688724,-75843.454302
26815.213248,-1332.370696,-3108.864956,-75843.454302
26815.215796,11251.130318,3701.029710,-75690.235202
26815.218345,7254.018232,8438.347739,-76609.549800
26815.220893,-3256.906145,9474.636058,-75230.577904
26815.223441,3404.947333,8882.471304,-76149.892501
26815.225989,-592.164754,148.041188,-75537.016103
26815.228538,-3404.947333,-1628.453072,-75690.235202
26815.231086,5181.441594,10955.047942,-75230.577904
26815.233634,4293.194464,13767.830521,-77222.426198
26815.236183,-444.123565,14656.077652,-74617.701505
26815.238731,5921.647536,11103.089130,-72932.291410
26815.241279,-8734.430116,5921.647536,-74004.825107
26815.243827,9770.718434,14508.036463,-73391.948708
26815.246376,5625.565159,10955.047942,-76609.549800
26815.248924,2664.741391,12879.583391,-75996.673402
26815.251472,-2960.823768,3108.864956,-75383.797003
26815.254020,0.000000,8142.265362,-73238.729609
26815.256569,444.123565,9918.759623,-73238.729609
26815.259117,-2220.617826,20873.807564,-72625.853210
26815.261665,8438.347739,8290.306550,-75996.673402
26815.264213,6217.729913,3849.070898,-74158.044206
26815.266762,-3552.988522,3701.029710,-74004.825107
26815.269310,7846.182985,7254.018232,-74311.263306
26815.271858,-2664.741391,11251.130318,-73851.606007
26815.274406,-1036.288319,13471.748144,-73391.948708
26815.276955,1480.411884,11399.171507,-74924.139704
26815.279511,2664.741391,15100.201217,-73391.948708
26815.282071,5921.647536,18357.107362,-75996.673402
26815.284631,6513.812290,19393.395680,-74158.044206
26815.287191,-4145.153275,15692.365970,-74158.044206
26815.289751,4589.276840,5329.482782,-74770.920605
26815.292311,-9178.553681,4589.276840,-75690.235202
26815.294871,6809.894666,10214.842000,-76149.892501
26815.297431,4589.276840,8290.306550,-75843.454302
26815.299991,-1924.535449,-4885.359217,-75996.673402
26815.302552,2664.741391,-9474.636058,-76149.892501
26815.305112,-444.123565,-3552.988522,-75690.235202
26815.307672,4441.235652,5033.400406,-76609.549800
26815.310232,7994.224174,9178.553681,-75690.235202
26815.312792,5329.482782,6809.894666,-75383.797003
26815.315352,-2072.576638,3701.029710,-73238.729609
26815.317912,-888.247130,-1036.288319,-74924.139704
26815.320472,-1480.411884,-888.247130,-76762.768900
26815.323032,-592.164754,-148.041188,-78448.178995
26815.325592,5477.523971,-296.082377,-79061.055394
26815.328152,5033.400406,6661.853478,-77069.207099
26815.330712,-1184.329507,6365.771101,-74924.139704
26815.333272,-296.082377,4441.235652,-73238.729609
26815.335832,1036.288319,1184.329507,-75690.235202
26815.338392,2368.659014,7846.182985,-75230.577904
26815.340953,4441.235652,296.082377,-77069.207099
26815.343513,1036.288319,-148.041188,-76762.768900
26815.346073,-296.082377,-7105.977043,-75996.673402
26815.348633,-3108.864956,-4293.194464,-75383.797003
26815.351193,9030.512492,-5773.606348,-77222.426198
26815.353753,5033.400406,11547.212695,-74770.920605
26815.356313,6809.894666,10658.965565,-75537.016103
26815.358873,-7550.100608,11695.253884,-74924.139704
26815.361433,5033.400406,2368.659014,-75383.797003
26815.363993,-8438.347739,-2664.741391,-75077.358804
26815.366553,4589.276840,6069.688724,-75383.797003
26815.369113,0.000000,14656.077652,-76149.892501
26815.371673,3404.947333,17024.736666,-75230.577904
26815.374233,1924.535449,11103.089130,-73851.606007
26815.376793,-1036.288319,10214.842000,-73085.510509
26815.379354,-2960.823768,10214.842000,-74004.825107
26815.381923,13767.830521,13323.706956,-76609.549800
26815.384492,3256.906145,12731.542202,-75690.235202
26815.387062,-740.205942,6809.894666,-75537.016103
26815.389631,2516.700203,5033.400406,-75690.235202
26815.392200,-592.164754,5477.523971,-72625.853210
26815.394770,-4737.318029,19837.519246,-71706.538613
26815.397339,10658.965565,11991.336260,-75537.016103
26815.399908,3256.906145,4293.194464,-75383.797003
26815.402478,-740.205942,4145.153275,-74924.139704
26815.405047,7550.100608,7550.100608,-73545.167808
26815.407616,-5477.523971,9474.636058,-74770.920605
26815.410186,3552.988522,14952.160028,-73698.386908
26815.412755,2516.700203,13471.748144,-73698.386908
26815.415324,2368.659014,17172.777854,-72932.291410
26815.417894,7402.059420,17912.983796,-74924.139704
26815.420463,5033.400406,19541.436869,-73545.167808
26815.423033,-4293.194464,12139.377449,-74158.044206
26815.425602,2072.576638,7994.224174,-74770.920605
26815.428171,-7402.059420,5033.400406,-75537.016103
26815.430741,7698.141797,13471.748144,-75077.358804
26815.433310,6957.935855,-888.247130,-76915.987999
26815.435879,-3701.029710,-5181.441594,-74924.139704
26815.438449,5329.482782,-10066.800811,-77222.426198
26815.441018,-2664.741391,-1776.494261,-76456.330700
26815.443587,4885.359217,6513.812290,-77528.864398
26815.446157,5033.400406,10362.883188,-76609.549800
26815.448726,6365.771101,6957.935855,-76303.111601
26815.451295,-1628.453072,3701.029710,-74004.825107
26815.453865,592.164754,-740.205942,-75690.235202
26815.456434,-1036.288319,888.247130,-77528.864398
26815.459004,2664.741391,1480.411884,-78141.740796
26815.461573,3997.112087,6957.935855,-75996.673402
26815.464142,4589.276840,5329.482782,-76915.987999
26815.466712,-888.247130,4145.153275,-75690.235202
26815.469281,-4737.318029,6661.853478,-73391.948708
26815.471850,5181.441594,-444.123565,-75996.673402
26815.474420,-888.247130,7254.018232,-75537.016103
26815.476989,7105.977043,296.082377,-78754.617194
26815.479558,-888.247130,-3552.988522,-77069.207099
26815.482128,0.000000,-7254.018232,-75230.577904
26815.484703,296.082377,-5921.647536,-76303.111601
26815.487279,7994.224174,-296.082377,-76456.330700
26815.489855,7402.059420,12583.501014,-75077.358804
26815.492430,-2220.617826,11843.295072,-76303.111601
26815.495006,4737.318029,8882.471304,-76609.549800
26815.497582,-4441.235652,1776.494261,-73545.167808
26815.500157,-3552.988522,444.123565,-74004.825107
26815.502733,5921.647536,14508.036463,-74770.920605
26815.505309,2960.823768,15692.365970,-75690.235202
26815.507884,-592.164754,15988.448347,-74770.920605
26815.510460,7105.977043,9030.512492,-73851.606007
26815.513036,-7402.059420,8882.471304,-73851.606007
26815.515611,7698.141797,14211.954086,-74158.044206
26815.518187,5181.441594,11991.336260,-76149.892501
26815.520763,4885.359217,10658.965565,-75996.673402
26815.523339,148.041188,3997.112087,-75230.577904
26815.525914,740.205942,6513.812290,-74311.263306
26815.528490,-2516.700203,15100.201217,-73391.948708
26815.531066,888.247130,11251.130318,-76915.987999
26815.533641,5329.482782,9770.718434,-75843.454302
26815.536217,2220.617826,9178.553681,-73085.510509
26815.538793,10658.965565,7402.059420,-73698.386908
26815.541368,-8438.347739,9178.553681,-77682.083497
26815.543944,10066.800811,11991.336260,-76149.892501
26815.546520,-9622.677246,14359.995275,-73391.948708
26815.549095,17172.777854,14656.077652,-75383.797003
26815.551671,-7846.182985,18653.189738,-74158.044206
26815.554247,19245.354492,16876.695478,-74617.701505
26815.556822,-14063.912898,15544.324782,-73545.167808
26815.559398,2072.576638,6957.935855,-74924.139704
26815.561974,-4885.359217,6957.935855,-75690.235202
26815.564549,5329.482782,12879.583391,-75996.673402
26815.567125,9474.636058,296.082377,-77835.302597
26815.569701,-6069.688724,-5329.482782,-75690.235202
26815.572276,4589.276840,-8438.347739,-76149.892501
26815.574852,-444.123565,-2220.617826,-75537.016103
26815.577428,4885.359217,4885.359217,-76609.549800
26815.580003,6809.894666,9918.759623,-75077.358804
26815.582579,4885.359217,6513.812290,-75383.797003
26815.585155,-1480.411884,2220.617826,-73238.729609
26815.587736,148.041188,-1036.288319,-75230.577904
26815.590317,-4441.235652,0.000000,-74617.701505
26815.592898,2220.617826,-148.041188,-75537.016103
26815.595479,2960.823768,4441.235652,-75537.016103
26815.598060,4885.359217,8734.430116,-75690.235202
26815.600641,296.082377,888.247130,-74770.920605
26815.603222,-2960.823768,5477.523971,-72472.634111
26815.605803,3108.864956,4589.276840,-73085.510509
26815.608384,3108.864956,4145.153275,-74924.139704
26815.610965,888.247130,444.123565,-76609.549800
26815.613546,3108.864956,-6365.771101,-76303.111601
26815.616127,-3404.947333,-6809.894666,-75230.577904
26815.618708,8290.306550,-7994.224174,-76915.987999
26815.621289,2072.576638,9622.677246,-74004.825107
26815.623870,6365.771101,9918.759623,-75690.235202
26815.626451,-4737.318029,15692.365970,-75077.358804
26815.629032,5181.441594,1036.288319,-75843.454302
26815.631613,-7846.182985,-1332.370696,-74004.825107
26815.634194,4737.318029,5773.606348,-74311.263306
26815.636775,0.000000,12583.501014,-76456.330700
26815.639356,7846.182985,17172.777854,-75843.454302
26815.641937,-1628.453072,14359.995275,-73851.606007
26815.644518,148.041188,9178.553681,-73085.510509
26815.647099,-4293.194464,11843.295072,-72779.072310
26815.649681,16876.695478,14952.160028,-75843.454302
26815.652262,-2516.700203,13027.624579,-74924.139704
26815.654843,3997.112087,7846.182985,-75843.454302
26815.657424,444.123565,5033.400406,-74770.920605
26815.660005,2220.617826,5625.565159,-75690.235202
26815.662586,-6661.853478,7550.100608,-76303.111601
26815.665167,6365.771101,14211.954086,-77222.426198
26815.667748,10807.006753,8290.306550,-74770.920605
26815.670329,-7994.224174,5033.400406,-73698.386908
26815.672910,4589.276840,8586.388927,-74770.920605
26815.675491,-3256.906145,5921.647536,-75843.454302
26815.678072,1628.453072,15100.201217,-74004.825107
26815.680653,6809.894666,16136.489536,-74311.263306
26815.683234,740.205942,18949.272115,-74158.044206
26815.685815,14211.954086,15692.365970,-74464.482406
26815.688396,-10955.047942,13619.789333,-73238.729609
26815.690981,5033.400406,9326.594869,-74158.044206
26815.693566,-11991.336260,7846.182985,-74464.482406
26815.696151,10955.047942,14804.118840,-74924.139704
26815.698735,6069.688724,2368.659014,-76762.768900
26815.701320,-2516.700203,-6069.688724,-74464.482406
26815.703905,1184.329507,-10066.800811,-74617.701505
26815.706490,3108.864956,-2072.576638,-75996.673402
26815.709075,3108.864956,5181.441594,-78294.959896
26815.711660,4145.153275,13471.748144,-75537.016103
26815.714245,7550.100608,6809.894666,-74924.139704
26815.716829,-444.123565,3701.029710,-73698.386908
26815.719414,-1480.411884,-2072.576638,-76609.549800
26815.721999,-2516.700203,-444.123565,-77375.645298
26815.724584,5625.565159,3404.947333,-78448.178995
26815.727169,2368.659014,2812.782580,-78141.740796
26815.729754,5921.647536,6661.853478,-78448.178995
26815.732338,1924.535449,3701.029710,-75077.358804
26815.734923,-2368.659014,2812.782580,-73851.606007
26815.737508,2812.782580,2960.823768,-76303.111601
26815.740093,1184.329507,2072.576638,-78141.740796
26815.742678,4737.318029,296.082377,-76762.768900
26815.745263,-1776.494261,-6957.935855,-76303.111601
26815.747848,1332.370696,-7105.977043,-75690.235202
26815.750432,5181.441594,-4885.359217,-76149.892501
26815.753017,8290.306550,9474.636058,-75077.358804
26815.755602,-4737.318029,12731.542202,-73698.386908
26815.758187,7254.018232,7846.182985,-75996.673402
26815.760772,-2812.782580,2220.617826,-74311.263306
26815.763357,-3256.906145,-740.205942,-75077.358804
26815.765942,3404.947333,9770.718434,-75077.358804
26815.768526,4293.194464,15840.407159,-75996.673402
26815.771111,740.205942,14211.954086,-74924.139704
26815.773696,3997.112087,11843.295072,-73238.729609
26815.776281,-8734.430116,8290.306550,-74311.263306
26815.778866,12879.583391,14508.036463,-74770.920605
26815.781451,3997.112087,12139.377449,-75383.797003
26815.784035,3997.112087,12139.377449,-75996.673402
26815.786620,3108.864956,3108.864956,-75537.016103
26815.789205,-3701.029710,5625.565159,-73698.386908
26815.791790,-3552.988522,3849.070898,-75843.454302
26815.794377,3552.988522,17024.736666,-73698.386908
26815.796963,444.123565,13175.665768,-75690.235202
26815.799550,5773.606348,5921.647536,-74004.825107
26815.802136,-592.164754,7105.977043,-73085.510509
26815.804723,0.000000,8734.430116,-74158.044206
26815.807310,-888.247130,14211.954086,-73851.606007
26815.809896,5181.441594,15396.283594,-73851.606007
26815.812483,5181.441594,20281.642811,-74158.044206
26815.815070,8586.388927,17172.777854,-73545.167808
26815.817656,-1776.494261,14656.077652,-74158.044206
26815.820243,-2664.741391,8438.347739,-74617.701505
26815.822829,-8734.430116,8142.265362,-75383.797003
26815.825416,10214.842000,15988.448347,-74004.825107
26815.828003,7254.018232,2368.659014,-77222.426198
26815.830589,-888.247130,-5329.482782,-75383.797003
26815.833176,-592.164754,-12879.583391,-75383.797003
26815.835762,-4737.318029,-3701.029710,-74770.920605
26815.838349,10807.006753,1332.370696,-77069.207099
26815.840936,3701.029710,12731.542202,-76303.111601
26815.843522,6365.771101,9178.553681,-75843.454302
26815.846109,1776.494261,4293.194464,-73391.948708
26815.848695,-5329.482782,-1332.370696,-75230.577904
26815.851282,2664.741391,-1776.494261,-77835.302597
26815.853869,-3108.864956,2960.823768,-76915.987999
26815.856455,1924.535449,0.000000,-77528.864398
26815.859042,15692.365970,5625.565159,-77988.521696
26815.861629,-8290.306550,7254.018232,-74311.263306
26815.864215,2516.700203,1776.494261,-72319.415011
26815.866802,3404.947333,1480.411884,-74617.701505
26815.869388,-4293.194464,3404.947333,-74924.139704
26815.871975,12287.418637,-2812.782580,-76303.111601
26815.874562,-8586.388927,-4441.235652,-75537.016103
26815.877148,11695.253884,-9622.677246,-76762.768900
26815.879735,-3552.988522,-2664.741391,-74311.263306
26815.882321,12879.583391,7105.977043,-75383.797003
26815.884908,-11251.130318,16580.613101,-73085.510509
26815.887495,9474.636058,7846.182985,-76915.987999
26815.890081,-5773.606348,3108.864956,-74924.139704
26815.892668,-148.041188,296.082377,-74617.701505
26815.895254,1628.453072,10362.883188,-74617.701505
26815.897842,2220.617826,13915.871710,-76456.330700
26815.900430,1184.329507,15396.283594,-74464.482406
26815.903018,-296.082377,13619.789333,-72319.415011
26815.905606,-3997.112087,7105.977043,-74464.482406
26815.908195,8882.471304,16728.654289,-74311.263306
26815.910783,9326.594869,10214.842000,-76456.330700
26815.913371,148.041188,11991.336260,-74311.263306
26815.915959,2516.700203,3404.947333,-73851.606007
26815.918547,-8438.347739,5477.523971,-72472.634111
26815.921135,2220.617826,13767.830521,-72319.415011
26815.923723,6957.935855,12287.418637,-76456.330700
26815.926311,592.164754,6217.729913,-77375.645298
26815.928899,1628.453072,9770.718434,-73698.386908
26815.931487,2516.700203,5329.482782,-75996.673402
26815.934075,-3256.906145,13175.665768,-75383.797003
26815.936663,4589.276840,12879.583391,-75690.235202
26815.939251,-2220.617826,20133.601622,-73698.386908
26815.941839,15988.448347,17320.819043,-75843.454302
26815.944427,-2664.741391,20281.642811,-73085.510509
26815.947015,6661.853478,6957.935855,-75383.797003
26815.949603,-15840.407159,8438.347739,-73391.948708
26815.952191,10510.924376,12583.501014,-75077.358804
26815.954779,-1184.329507,12435.459826,-75996.673402
26815.957367,11547.212695,-2516.700203,-77069.207099
26815.959955,-3997.112087,-10955.047942,-75230.577904
26815.962543,-3108.864956,-11843.295072,-75843.454302
26815.965131,8882.471304,-1332.370696,-76456.330700
26815.967719,-7698.141797,10214.842000,-77375.645298
26815.970307,18357.107362,10510.924376,-76149.892501
26815.972895,-5329.482782,9326.594869,-72932.291410
26815.975483,4885.359217,740.205942,-74311.263306
26815.978071,-1924.535449,-3552.988522,-77222.426198
26815.980660,-2072.576638,-592.164754,-75996.673402
26815.983249,5329.482782,3108.864956,-74311.263306
26815.985838,4737.318029,4589.276840,-77222.426198
26815.988426,10807.006753,4293.194464,-77069.207099
26815.991015,-4293.194464,-296.082377,-75077.358804
26815.993604,-444.123565,2516.700203,-74464.482406
26815.996193,-3256.906145,148.041188,-77069.207099
26815.998782,7698.141797,1036.288319,-78141.740796
26816.001371,-3404.947333,-3701.029710,-76609.549800
26816.003960,7254.018232,-5329.482782,-75077.358804
26816.006549,1332.370696,-6365.771101,-76303.111601
26816.009138,5329.482782,6365.771101,-74311.263306
26816.011727,-4737.318029,16136.489536,-73545.167808
26816.014316,5773.606348,10362.883188,-76915.987999
26816.016905,-740.205942,5625.565159,-75230.577904
26816.019494,-3552.988522,-740.205942,-73545.167808
26816.022082,2960.823768,10658.965565,-73545.167808
26816.024671,2220.617826,13915.871710,-75843.454302
26816.027260,1332.370696,16284.530724,-75230.577904
26816.029849,2072.576638,13027.624579,-73391.948708
26816.032438,-4737.318029,8438.347739,-73698.386908
26816.035027,10807.006753,13915.871710,-75230.577904
26816.037616,6809.894666,11399.171507,-76456.330700
26816.040205,-4885.359217,14952.160028,-74158.044206
26816.042794,9030.512492,6809.894666,-76609.549800
26816.045383,-7254.018232,6069.688724,-76456.330700
26816.047972,3701.029710,9326.594869,-75843.454302
26816.050561,1628.453072,10510.924376,-74924.139704
26816.053150,1924.535449,7254.018232,-75537.016103
26816.055738,5329.482782,11695.253884,-73238.729609
26816.058327,-888.247130,6217.729913,-76456.330700
26816.060916,592.164754,11695.253884,-74924.139704
26816.063505,-444.123565,12731.542202,-73545.167808
26816.066094,5773.606348,18653.189738,-73698.386908
26816.068683,10214.842000,19245.354492,-74464.482406
26816.071272,-1628.453072,15840.407159,-73851.606007
26816.073861,2664.741391,9178.553681,-74004.825107
26816.076450,-13767.830521,8586.388927,-73391.948708
26816.079039,8734.430116,13175.665768,-75383.797003
26816.081628,4589.276840,7846.182985,-77835.302597
26816.084217,2960.823768,-3404.947333,-75843.454302
26816.086806,-592.164754,-11399.171507,-76303.111601
26816.089395,-2812.782580,-8734.430116,-74924.139704
26816.091984,8882.471304,592.164754,-76762.768900
26816.094573,1184.329507,11991.336260,-75996.673402
26816.097162,5921.647536,10510.924376,-75077.358804
26816.099751,5181.441594,8438.347739,-72932.291410
26816.102340,-7550.100608,0.000000,-75383.797003
26816.104929,5625.565159,-3849.070898,-78907.836294
26816.107518,-4441.235652,-2368.659014,-77988.521696
26816.110107,9918.759623,-3701.029710,-79980.369991
26816.112696,3552.988522,7994.224174,-76609.549800
26816.115286,-1480.411884,5921.647536,-74158.044206
26816.117875,2072.576638,-1184.329507,-74158.044206
26816.120464,-3997.112087,4441.235652,-73391.948708
26816.123053,5625.565159,-2664.741391,-75996.673402
26816.125642,-148.041188,296.082377,-76303.111601
26816.128231,6365.771101,-6661.853478,-76915.987999
26816.130820,0.000000,-5033.400406,-75077.358804
26816.133409,9918.759623,-1036.288319,-75996.673402
26816.135998,-7698.141797,12879.583391,-73085.510509
26816.138587,9622.677246,12731.542202,-75537.016103
26816.141176,-3256.906145,8734.430116,-75690.235202
26816.143765,-1184.329507,1776.494261,-75383.797003
26816.146354,3997.112087,11251.130318,-73698.386908
26816.148943,2664.741391,13027.624579,-75383.797003
26816.151532,1184.329507,15544.324782,-74770.920605
26816.154122,3552.988522,11399.171507,-74464.482406
26816.156711,-4737.318029,9770.718434,-73851.606007
26816.159300,5181.441594,12879.583391,-74770.920605
26816.161889,7698.141797,12287.418637,-76149.892501
26816.164478,-148.041188,12139.377449,-74924.139704
26816.167067,3256.906145,7550.100608,-73851.606007
26816.169656,3404.947333,9474.636058,-72319.415011
26816.172245,-4885.359217,3404.947333,-75996.673402
26816.174834,-4441.235652,12879.583391,-75383.797003
26816.177423,12435.459826,11103.089130,-75077.358804
26816.180012,-5625.565159,5773.606348,-74464.482406
26816.182601,6809.894666,12435.459826,-73238.729609
26816.185190,1628.453072,8290.306550,-76149.892501
26816.187739,-11103.089130,15692.365970,-73851.606007
26816.190287,20281.642811,18061.024985,-74311.263306
26816.192836,-6217.729913,22206.178260,-74770.920605
26816.195384,9474.636058,13619.789333,-75537.016103
26816.197933,-4145.153275,13175.665768,-72625.853210
26816.200481,-4589.276840,6513.812290,-74158.044206
26816.203030,-592.164754,16284.530724,-73085.510509
26816.205578,12435.459826,592.164754,-78754.617194
26816.208127,-5773.606348,-6957.935855,-76149.892501
26816.210675,5477.523971,-12287.418637,-75996.673402
26816.213224,-3849.070898,-6513.812290,-75690.235202
26816.215772,7698.141797,1184.329507,-77069.207099
26816.218321,5181.441594,10362.883188,-75230.577904
26816.220869,1776.494261,11991.336260,-75843.454302
26816.223418,6513.812290,7698.141797,-73545.167808
26816.225966,-4589.276840,2220.617826,-74004.825107
26816.228515,6513.812290,-5477.523971,-76762.768900
26816.231063,-2516.700203,-5625.565159,-77528.864398
26816.233612,5181.441594,10510.924376,-71553.319513
26816.236160,3849.070898,5033.400406,-78448.178995
26816.238709,1628.453072,5773.606348,-74311.263306
26816.241257,-2368.659014,1036.288319,-73391.948708
26816.243806,-1776.494261,2072.576638,-75383.797003
26816.246354,4737.318029,-3256.906145,-78907.836294
26816.248903,5625.565159,-2516.700203,-76456.330700
26816.251451,3701.029710,-9178.553681,-77835.302597
26816.254000,5329.482782,-2812.782580,-74464.482406
26816.256548,592.164754,4589.276840,-73545.167808
26816.259097,-3108.864956,11991.336260,-74311.263306
26816.261645,4293.194464,9770.718434,-74924.139704
26816.264194,-2072.576638,5329.482782,-75230.577904
26816.266742,296.082377,3849.070898,-75843.454302
26816.269291,7550.100608,10214.842000,-75690.235202
26816.271839,-2220.617826,15544.324782,-74924.139704
26816.274388,5329.482782,11547.212695,-74617.701505
26816.276936,-2960.823768,13767.830521,-71553.319513
26816.279485,-4293.194464,9030.512492,-74311.263306
26816.282033,13619.789333,14063.912898,-75230.577904
26816.284582,4441.235652,10066.800811,-76303.111601
26816.287130,148.041188,11103.089130,-75230.577904
26816.289682,10658.965565,7846.182985,-74464.482406
26816.292238,-8438.347739,9918.759623,-73698.386908
26816.294795,4885.359217,8290.306550,-77069.207099
26816.297352,-5477.523971,8882.471304,-75996.673402
26816.299908,11695.253884,8882.471304,-75690.235202
26816.302465,-6809.894666,8438.347739,-74464.482406
26816.305021,9178.553681,10066.800811,-75690.235202
26816.307578,-3701.029710,11547.212695,-74158.044206
26816.310135,3404.947333,17764.942608,-73698.386908
26816.312691,8734.430116,21465.972318,-73545.167808
26816.315248,740.205942,19097.313304,-75537.016103
26816.317804,3552.988522,10658.965565,-74770.920605
26816.320361,-11547.212695,7105.977043,-74311.263306
26816.322917,6809.894666,12435.459826,-74004.825107
26816.325474,2368.659014,7402.059420,-76303.111601
26816.328031,3108.864956,-4145.153275,-75843.454302
26816.330587,6365.771101,-9918.759623,-76303.111601
26816.333144,-7846.182985,-7994.224174,-75537.016103
26816.335700,13175.665768,0.000000,-76303.111601
26816.338257,-6217.729913,7846.182985,-75843.454302
26816.340814,15248.242405,10807.006753,-75996.673402
26816.343370,-4589.276840,9474.636058,-73851.606007
26816.345927,2368.659014,3108.864956,-74617.701505
26816.348483,-1036.288319,-2072.576638,-78601.398095
26816.351040,-4441.235652,-2368.659014,-75230.577904
26816.353596,7550.100608,-2220.617826,-76762.768900
26816.356153,8142.265362,7254.018232,-75383.797003
26816.358710,-2368.659014,-2368.659014,-78448.178995
26816.361266,148.041188,5921.647536,-72472.634111
26816.363823,-2220.617826,-2220.617826,-73698.386908
26816.366379,3701.029710,3108.864956,-73851.606007
26816.368936,-296.082377,-3997.112087,-77069.207099
26816.371492,6809.894666,-4145.153275,-76762.768900
26816.374049,4737.318029,-3552.988522,-74924.139704
26816.376606,-3552.988522,4441.235652,-74464.482406
26816.379162,4145.153275,8734.430116,-76303.111601
26816.381719,-1332.370696,10362.883188,-74311.263306
26816.384275,-148.041188,4145.153275,-75690.235202
26816.386832,4441.235652,8734.430116,-75230.577904
26816.389389,3108.864956,10362.883188,-75077.358804
26816.391952,296.082377,14211.954086,-75077.358804
26816.394515,1776.494261,11843.295072,-74924.139704
26816.397078,0.000000,11991.336260,-73391.948708
26816.399641,-7550.100608,9918.759623,-74311.263306
26816.402205,15988.448347,14952.160028,-75230.577904
26816.404768,2220.617826,10807.006753,-76456.330700
26816.407331,-1036.288319,8586.388927,-74617.701505
26816.409894,2072.576638,5625.565159,-74770.920605
26816.412458,-1776.494261,7698.141797,-74924.139704
26816.415021,-1036.288319,7994.224174,-76303.111601
26816.417584,3701.029710,8734.430116,-75843.454302
26816.420147,1924.535449,12879.583391,-74770.920605
26816.422710,3701.029710,8142.265362,-76762.768900
26816.425274,-1480.411884,9178.553681,-74770.920605
26816.427837,444.123565,14656.077652,-73085.510509
26816.430400,5477.523971,16876.695478,-74311.263306
26816.432963,10955.047942,22798.343014,-74770.920605
26816.435527,-740.205942,14211.954086,-75383.797003
26816.438090,-4441.235652,11251.130318,-73238.729609
26816.440653,0.000000,7994.224174,-73085.510509
26816.443216,444.123565,12435.459826,-74924.139704
26816.445779,9178.553681,-2664.741391,-77835.302597
26816.448343,-3552.988522,-5773.606348,-75537.016103
26816.450906,2516.700203,-12583.501014,-77835.302597
26816.453469,5773.606348,-5329.482782,-76149.892501
26816.456032,-2072.576638,4885.359217,-75996.673402
26816.458595,9770.718434,8882.471304,-75537.016103
26816.461159,1184.329507,14063.912898,-73238.729609
26816.463722,4145.153275,4441.235652,-74464.482406
26816.466285,-3552.988522,1776.494261,-77222.426198
26816.468848,3256.906145,-5625.565159,-79520.712692
26816.471412,1184.329507,-4737.318029,-78601.398095
26816.473975,2368.659014,10214.842000,-74158.044206
26816.476538,4589.276840,4293.194464,-76149.892501
26816.479101,-888.247130,-148.041188,-75537.016103
26816.481664,-1184.329507,2072.576638,-72166.195912
26816.484228,-1776.494261,-1036.288319,-75690.235202
26816.486791,4885.359217,0.000000,-77222.426198
26816.489354,10066.800811,-4589.276840,-77528.864398
26816.491917,296.082377,592.164754,-74464.482406
26816.494485,5033.400406,-2220.617826,-75690.235202
26816.497053,-7254.018232,7550.100608,-74004.825107
26816.499620,5921.647536,6513.812290,-75690.235202
26816.502188,-3256.906145,7698.141797,-74924.139704
26816.504756,-444.123565,9622.677246,-75690.235202
26816.507324,2220.617826,14063.912898,-75537.016103
26816.509891,7698.141797,16876.695478,-74617.701505
26816.512459,-5921.647536,11547.212695,-74158.044206
26816.515027,3552.988522,11547.212695,-73391.948708
26816.517594,-5773.606348,6957.935855,-74770.920605
26816.520162,11399.171507,15100.201217,-75077.358804
26816.522730,3404.947333,9178.553681,-76609.549800
26816.525298,148.041188,13175.665768,-74158.044206
26816.527865,10807.006753,10807.006753,-74464.482406
26816.530433,-10658.965565,3256.906145,-76149.892501
26816.533001,1036.288319,13619.789333,-76303.111601
26816.535568,13323.706956,13323.706956,-73238.729609
26816.538136,-7846.182985,6661.853478,-75077.358804
26816.540704,10955.047942,13175.665768,-74004.825107
26816.543272,-4293.194464,3256.906145,-75230.577904
26816.545839,4441.235652,16876.695478,-72625.853210
26816.548407,3108.864956,17912.983796,-72319.415011
26816.550975,3256.906145,23834.631332,-74770.920605
26816.553542,4589.276840,14359.995275,-75843.454302
26816.556110,-12139.377449,12139.377449,-73698.386908
26816.558678,5329.482782,10658.965565,-74617.701505
26816.561246,444.123565,10658.965565,-73851.606007
26816.563813,5921.647536,-4145.153275,-76915.987999
26816.566381,-2072.576638,-11251.130318,-75843.454302
26816.568949,-4441.235652,-9918.759623,-76149.892501
26816.571516,11399.171507,-3404.947333,-76609.549800
26816.574084,-4293.194464,7254.018232,-76149.892501
26816.576652,13175.665768,8438.347739,-76303.111601
26816.579220,-4589.276840,13619.789333,-72932.291410
26816.581787,9918.759623,3701.029710,-74617.701505
26816.584355,-13323.706956,-1628.453072,-77682.083497
26816.586923,7402.059420,-6365.771101,-79061.055394
26816.589490,7994.224174,148.041188,-76149.892501
26816.592058,-7402.059420,10955.047942,-74770.920605
26816.594626,15396.283594,592.164754,-76762.768900
26816.597198,-10214.842000,2960.823768,-74158.044206
26816.599769,3108.864956,-3256.906145,-74924.139704
26816.602341,-5625.565159,148.041188,-77375.645298
26816.604913,12583.501014,-4441.235652,-79980.369991
26816.607485,3552.988522,592.164754,-76762.768900
26816.610056,-148.041188,-2664.741391,-75077.358804
26816.612628,-296.082377,148.041188,-75077.358804
26816.615200,-2812.782580,3997.112087,-75537.016103
26816.617772,2812.782580,5921.647536,-76149.892501
26816.620344,-6217.729913,4885.359217,-76609.549800
26816.622915,10807.006753,16284.530724,-74924.139704
26816.625487,1924.535449,13767.830521,-75996.673402
26816.628059,4145.153275,15248.242405,-74004.825107
26816.630631,-592.164754,10066.800811,-73085.510509
26816.633202,-4441.235652,10066.800811,-73851.606007
26816.635774,8438.347739,9770.718434,-74770.920605
26816.638346,6809.894666,13915.871710,-75690.235202
26816.640918,8882.471304,10362.883188,-77835.302597
26816.643489,-3849.070898,10658.965565,-74617.701505
26816.646061,5773.606348,9474.636058,-73698.386908
26816.648633,-4293.194464,7550.100608,-75537.016103
26816.651205,-4145.153275,9918.759623,-75383.797003
26816.653777,11843.295072,11991.336260,-75537.016103
26816.656348,1332.370696,9622.677246,-76149.892501
26816.658920,5329.482782,10362.883188,-75230.577904
26816.661492,-3701.029710,10214.842000,-73698.386908
26816.664064,7105.977043,16580.613101,-73085.510509
26816.666635,1332.370696,21021.848753,-74464.482406
26816.669207,4145.153275,19245.354492,-75690.235202
26816.671779,-3997.112087,11843.295072,-74770.920605
26816.674351,-1036.288319,11251.130318,-74004.825107
26816.676922,4737.318029,11695.253884,-75230.577904
26816.679494,4441.235652,-2664.741391,-76762.768900
26816.682066,-444.123565,-8586.388927,-75996.673402
26816.684638,1628.453072,-14804.118840,-77069.207099
26816.687210,1480.411884,-5329.482782,-75690.235202
26816.689781,3256.906145,888.247130,-76609.549800
26816.692353,6809.894666,9770.718434,-76456.330700
26816.694925,-1036.288319,12139.377449,-73238.729609
26816.697497,3849.070898,6217.729913,-73851.606007
26816.700072,-3552.988522,3552.988522,-74770.920605
26816.702646,3701.029710,-2664.741391,-78294.959896
26816.705221,296.082377,-4441.235652,-78907.836294
26816.707796,8142.265362,6217.729913,-75383.797003
26816.710371,1924.535449,6069.688724,-76915.987999
26816.712946,2516.700203,1184.329507,-74924.139704
26816.715521,-4145.153275,-740.205942,-72166.195912
26816.718096,740.205942,-148.041188,-74158.044206
26816.720671,3701.029710,-1776.494261,-77835.302597
26816.723246,8586.388927,2220.617826,-75537.016103
26816.725821,8586.388927,-1776.494261,-76303.111601
26816.728395,-5773.606348,1628.453072,-74464.482406
26816.730970,-1924.535449,1776.494261,-74617.701505
26816.733545,4293.194464,3404.947333,-74770.920605
26816.736120,2368.659014,4441.235652,-76609.549800
26816.738695,-148.041188,17172.777854,-75383.797003
26816.741270,10658.965565,17616.901420,-75996.673402
26816.743845,-3404.947333,15988.448347,-73238.729609
26816.746420,-1924.535449,9918.759623,-72166.195912
26816.748995,1036.288319,9622.677246,-73698.386908
26816.751570,-1924.535449,8290.306550,-73698.386908
26816.754145,12139.377449,13915.871710,-75537.016103
26816.756719,5033.400406,9326.594869,-77222.426198
26816.759294,-7698.141797,8142.265362,-74464.482406
26816.761869,10362.883188,8586.388927,-74770.920605
26816.764444,-13619.789333,10510.924376,-73851.606007
26816.767019,10955.047942,8142.265362,-75537.016103
26816.769594,-5181.441594,11103.089130,-74617.701505
26816.772169,15840.407159,10510.924376,-74924.139704
26816.774744,-3997.112087,9770.718434,-75383.797003
26816.777319,0.000000,12435.459826,-72932.291410
26816.779894,5033.400406,19393.395680,-72319.415011
26816.782468,-296.082377,21910.095883,-75383.797003
26816.785043,7402.059420,16580.613101,-74924.139704
26816.787618,-10214.842000,13767.830521,-74004.825107
26816.790193,10214.842000,10955.047942,-74158.044206
26816.792768,-1776.494261,10955.047942,-74311.263306
26816.795343,9178.553681,-6809.894666,-75843.454302
26816.797918,-2516.700203,-9474.636058,-76915.987999
26816.800493,888.247130,-11843.295072,-77988.521696
26816.803069,8734.430116,-2664.741391,-77528.864398
26816.805645,-1332.370696,4885.359217,-76609.549800
26816.808222,12583.501014,10362.883188,-76149.892501
26816.810798,-4293.194464,12287.418637,-72319.415011
26816.813374,5329.482782,5329.482782,-73391.948708
26816.815950,-7402.059420,1036.288319,-75383.797003
26816.818526,3997.112087,-8142.265362,-78141.740796
26816.821103,1184.329507,1184.329507,-76762.768900
26816.823679,6069.688724,3997.112087,-77835.302597
26816.826255,-1036.288319,3997.112087,-76456.330700
26816.828831,-1332.370696,-1924.535449,-74924.139704
26816.831408,-1184.329507,-148.041188,-74158.044206
26816.833984,888.247130,-2368.659014,-77528.864398
26816.836560,5477.523971,-2664.741391,-78601.398095
26816.839136,11399.171507,444.123565,-76456.330700
26816.841713,-5329.482782,148.041188,-74311.263306
26816.844289,1628.453072,1924.535449,-74158.044206
26816.846865,-1776.494261,1924.535449,-73851.606007
26816.849441,5773.606348,1628.453072,-75843.454302
26816.852018,-4737.318029,11991.336260,-74770.920605
26816.854594,8586.388927,17616.901420,-76456.330700
26816.857170,2812.782580,20429.683999,-74158.044206
26816.859746,-4589.276840,11251.130318,-73698.386908
26816.862323,2664.741391,9770.718434,-73545.167808
26816.864899,-5921.647536,7994.224174,-73851.606007
26816.867475,14211.954086,12435.459826,-75843.454302
26816.870051,1332.370696,8438.347739,-75996.673402
26816.872628,3552.988522,9918.759623,-73085.510509
26816.875204,-3701.029710,5625.565159,-73851.606007
26816.877780,3404.947333,11399.171507,-73238.729609
26816.880356,-8734.430116,9030.512492,-76456.330700
26816.882932,14952.160028,11399.171507,-74311.263306
26816.885509,-5181.441594,11547.212695,-75537.016103
26816.888085,10510.924376,9918.759623,-76609.549800
26816.890661,-4441.235652,12731.542202,-74311.263306
26816.893237,6069.688724,16580.613101,-73238.729609
26816.895814,-1480.411884,21317.931130,-74311.263306
26816.898390,5033.400406,17616.901420,-76456.330700
26816.900966,-5181.441594,12879.583391,-74311.263306
26816.903542,6217.729913,13619.789333,-74617.701505
26816.906120,2812.782580,7698.141797,-75537.016103
26816.908698,4441.235652,-5181.441594,-76149.892501
26816.911275,-888.247130,-14211.954086,-76915.987999
26816.913853,444.123565,-12139.377449,-77528.864398
26816.916431,4145.153275,-6069.688724,-76149.892501
26816.919008,1776.494261,5033.400406,-76303.111601
26816.921586,11103.089130,8586.388927,-75996.673402
26816.924164,-3997.112087,13619.789333,-73238.729609
26816.926741,4441.235652,6809.894666,-74617.701505
26816.929319,-2220.617826,1332.370696,-76456.330700
26816.931896,4885.359217,444.123565,-76456.330700
26816.934474,-7698.141797,-5033.400406,-77988.521696
26816.937052,8438.347739,8586.388927,-74924.139704
26816.939629,2960.823768,148.041188,-77682.083497
26816.942207,148.041188,1184.329507,-74924.139704
26816.944785,-148.041188,-2812.782580,-74004.825107
26816.947362,2812.782580,-1628.453072,-77222.426198
26816.949940,8438.347739,-1776.494261,-78448.178995
26816.952518,8438.347739,2812.782580,-75537.016103
26816.955095,-2516.700203,-1184.329507,-75843.454302
26816.957673,-4145.153275,1332.370696,-74924.139704
26816.960251,3552.988522,296.082377,-74464.482406
26816.962828,-3552.988522,2516.700203,-74311.263306
26816.965406,2368.659014,19393.395680,-74158.044206
26816.967983,1480.411884,18505.148550,-75690.235202
26816.970561,5329.482782,20873.807564,-74464.482406
26816.973139,-6957.935855,11103.089130,-73698.386908
26816.975716,2812.782580,11103.089130,-73391.948708
26816.978294,-592.164754,4885.359217,-75843.454302
26816.980872,6217.729913,12879.583391,-74924.139704
26816.983449,8586.388927,7994.224174,-77528.864398
26816.986027,-10214.842000,8882.471304,-75077.358804
26816.988605,18061.024985,6661.853478,-74770.920605
26816.991182,-20873.807564,15396.283594,-73085.510509
26816.993760,10510.924376,9770.718434,-74617.701505
26816.996338,8586.388927,14063.912898,-73698.386908
26816.998915,3256.906145,10362.883188,-75537.016103
26817.001493,11251.130318,10658.965565,-75077.358804
26817.004071,-6513.812290,10362.883188,-73238.729609
26817.006648,9770.718434,19245.354492,-72625.853210
26817.009226,-8734.430116,22354.219448,-74770.920605
26817.011804,9178.553681,19097.313304,-74464.482406
26817.014381,-11547.212695,16432.571912,-73698.386908
26817.016959,9474.636058,11695.253884,-75077.358804
26817.019537,4589.276840,-592.164754,-75843.454302
26817.022115,-4145.153275,-11843.295072,-75996.673402
26817.024693,2220.617826,-12287.418637,-77375.645298
26817.027270,-1332.370696,-7402.059420,-76915.987999
26817.029848,6513.812290,296.082377,-76915.987999
26817.032426,3552.988522,8438.347739,-75077.358804
26817.035004,8290.306550,11991.336260,-73851.606007
26817.037582,2664.741391,10510.924376,-73391.948708
26817.040159,-2368.659014,1924.535449,-78294.959896
26817.042737,1776.494261,-3552.988522,-78754.617194
26817.045315,740.205942,-4885.359217,-77375.645298
26817.047893,-296.082377,5921.647536,-74770.920605
26817.050470,8142.265362,5625.565159,-76915.987999
26817.053048,-2220.617826,-2516.700203,-75996.673402
26817.055626,3701.029710,1332.370696,-72166.195912
26817.058204,-2516.700203,-2960.823768,-75996.673402
26817.060782,9474.636058,444.123565,-77835.302597
26817.063359,4885.359217,-148.041188,-76303.111601
26817.065937,2960.823768,740.205942,-74924.139704
26817.068515,-4441.235652,1036.288319,-74004.825107
26817.071093,-592.164754,148.041188,-75077.358804
26817.073670,2516.700203,888.247130,-74770.920605
26817.076248,-1036.288319,13175.665768,-72779.072310
26817.078826,888.247130,20725.766376,-76456.330700
26817.081404,10955.047942,21169.889941,-74770.920605
26817.083982,-10510.924376,14063.912898,-73391.948708
26817.086559,9030.512492,9622.677246,-73391.948708
26817.089137,-5477.523971,6365.771101,-75077.358804
26817.091715,10362.883188,10658.965565,-75996.673402
26817.094293,5921.647536,9030.512492,-77835.302597
26817.096870,6661.853478,10955.047942,-75230.577904
26817.099448,1924.535449,11991.336260,-72932.291410
26817.102026,4293.194464,8734.430116,-75230.577904
26817.104604,-5181.441594,5921.647536,-77222.426198
26817.107182,13027.624579,11991.336260,-74311.263306
26817.109759,-592.164754,11399.171507,-74770.920605
26817.112337,6957.935855,13175.665768,-75690.235202
26817.114915,-296.082377,10066.800811,-74004.825107
26817.117493,444.123565,17764.942608,-71246.881314
26817.120071,0.000000,21317.931130,-74311.263306
26817.122649,0.000000,19985.560434,-75537.016103
26817.125227,-3108.864956,16284.530724,-75077.358804
26817.127805,7550.100608,17024.736666,-74617.701505
26817.130383,4589.276840,444.123565,-76456.330700
26817.132961,-2812.782580,-11843.295072,-75690.235202
26817.135539,1628.453072,-13175.665768,-75230.577904
26817.138117,-5033.400406,-9770.718434,-77222.426198
26817.140694,5921.647536,2812.782580,-76915.987999
26817.143272,5773.606348,8290.306550,-75230.577904
26817.145850,4885.359217,11103.089130,-74158.044206
26817.148428,592.164754,9178.553681,-72472.634111
26817.151006,592.164754,5921.647536,-72932.291410
26817.153584,1184.329507,1776.494261,-74158.044206
26817.156162,-1776.494261,-6365.771101,-77069.207099
26817.158740,9326.594869,-740.205942,-75077.358804
26817.161318,2960.823768,-1332.370696,-78754.617194
26817.163896,1776.494261,888.247130,-75383.797003
26817.166474,-3256.906145,-2664.741391,-73391.948708
26817.169052,4737.318029,0.000000,-74924.139704
26817.171630,7550.100608,-1628.453072,-78141.740796
26817.174208,6069.688724,2960.823768,-76149.892501
26817.176785,-1480.411884,-1184.329507,-75690.235202
26817.179363,-2516.700203,1924.535449,-74004.825107
26817.181941,3404.947333,-1332.370696,-75996.673402
26817.184519,-1036.288319,740.205942,-75537.016103
26817.187097,888.247130,19689.478057,-72932.291410
26817.189675,2960.823768,19689.478057,-75843.454302
26817.192253,6957.935855,22502.260637,-75230.577904
26817.194831,-6661.853478,12583.501014,-73698.386908
26817.197409,3108.864956,10807.006753,-72472.634111
26817.199987,-1036.288319,4885.359217,-75690.235202
26817.202565,3701.029710,12287.418637,-75230.577904
26817.205143,11251.130318,7105.977043,-75537.016103
26817.207721,-7550.100608,12731.542202,-71859.757712
26817.210299,6217.729913,7105.977043,-73545.167808
26817.212876,-148.041188,11843.295072,-74617.701505
26817.215418,-8142.265362,8734.430116,-75537.016103
26817.217960,14508.036463,13471.748144,-73698.386908
26817.220502,740.205942,12583.501014,-75230.577904
26817.223044,14952.160028,8882.471304,-76149.892501
26817.225586,-10214.842000,17172.777854,-70940.443115
26817.228128,5181.441594,16580.613101,-73391.948708
26817.230670,-888.247130,21021.848753,-75843.454302
26817.233212,-1924.535449,17320.819043,-75230.577904
26817.235754,-444.123565,20133.601622,-74311.263306
26817.238296,12583.501014,11103.089130,-75843.454302
26817.240838,-1776.494261,-6513.812290,-76456.330700
26817.243380,-1776.494261,-15988.448347,-76303.111601
26817.245921,-2368.659014,-13175.665768,-77069.207099
26817.248463,6217.729913,-3552.988522,-78448.178995
26817.251005,1628.453072,7254.018232,-76456.330700
26817.253547,10066.800811,8734.430116,-76149.892501
26817.256089,-1924.535449,12731.542202,-72012.976812
26817.258631,1184.329507,9918.759623,-73391.948708
26817.261173,1332.370696,4589.276840,-76303.111601
26817.263715,-3552.988522,-5329.482782,-77375.645298
26817.266257,4293.194464,-2072.576638,-76149.892501
26817.268799,2220.617826,3849.070898,-75230.577904
26817.271341,2960.823768,-2220.617826,-78141.740796
26817.273883,-2812.782580,-1184.329507,-75077.358804
26817.276425,888.247130,-3256.906145,-74464.482406
26817.278967,2072.576638,296.082377,-77222.426198
26817.281508,10066.800811,296.082377,-79673.931792
26817.284050,2664.741391,1628.453072,-77069.207099
26817.286592,740.205942,-592.164754,-73391.948708
26817.289134,-5181.441594,-1628.453072,-75383.797003
26817.291676,8142.265362,-3701.029710,-76303.111601
26817.294218,-5921.647536,14063.912898,-72472.634111
26817.296760,4737.318029,21169.889941,-76149.892501
26817.299302,8290.306550,24722.878463,-75230.577904
26817.301844,-5625.565159,15988.448347,-74004.825107
26817.304386,1924.535449,11991.336260,-72012.976812
26817.306928,148.041188,5625.565159,-74617.701505
26817.309470,9030.512492,9770.718434,-76609.549800
26817.312012,2664.741391,6809.894666,-76149.892501
26817.314553,-1480.411884,7846.182985,-73851.606007
26817.317102,1332.370696,11695.253884,-72166.195912
26817.319652,3404.947333,10955.047942,-73085.510509
26817.322201,-3108.864956,5477.523971,-76915.987999
26817.324751,8586.388927,11695.253884,-74004.825107
26817.327300,3404.947333,11547.212695,-76762.768900
26817.329849,3849.070898,9474.636058,-77375.645298
26817.332399,4885.359217,12731.542202,-74158.044206
26817.334948,-1776.494261,18061.024985,-73391.948708
26817.337497,4885.359217,18949.272115,-74770.920605
26817.340047,-6513.812290,19541.436869,-74924.139704
26817.342596,5329.482782,19393.395680,-74311.263306
26817.345145,3108.864956,16136.489536,-73851.606007
26817.347695,2220.617826,-8734.430116,-77222.426198
26817.350244,-1628.453072,-15988.448347,-76915.987999
26817.352793,-3997.112087,-14211.954086,-77375.645298
26817.355343,9918.759623,-4885.359217,-78907.836294
26817.357892,-1332.370696,6069.688724,-76609.549800
26817.360441,16136.489536,9178.553681,-76915.987999
26817.362991,-6217.729913,12583.501014,-72319.415011
26817.365540,5921.647536,7550.100608,-75383.797003
26817.368089,-5181.441594,5181.441594,-75383.797003
26817.370639,4589.276840,-4737.318029,-78448.178995
26817.373188,7105.977043,-9178.553681,-77988.521696
26817.375737,-4737.318029,3256.906145,-77069.207099
26817.378287,7846.182985,-2072.576638,-78754.617194
26817.380836,-9178.553681,-444.123565,-74617.701505
26817.383386,6069.688724,-296.082377,-72932.291410
26817.385935,-1332.370696,1480.411884,-75996.673402
26817.388484,13323.706956,2368.659014,-77988.521696
26817.391034,-4589.276840,1332.370696,-75843.454302
26817.393583,148.041188,-296.082377,-75230.577904
26817.396132,-888.247130,-4441.235652,-75996.673402
26817.398688,-2812.782580,1480.411884,-74617.701505
26817.401244,5329.482782,19245.354492,-73851.606007
26817.403799,888.247130,24722.878463,-75230.577904
26817.406355,9326.594869,22502.260637,-74464.482406
26817.408911,-8882.471304,13915.871710,-73698.386908
26817.411466,5625.565159,7994.224174,-73545.167808
26817.414022,-888.247130,6365.771101,-74311.263306
26817.416578,9326.594869,9030.512492,-76456.330700
26817.419134,3404.947333,5921.647536,-78294.959896
26817.421689,8438.347739,9622.677246,-74617.701505
26817.424245,-17764.942608,9622.677246,-73238.729609
26817.426801,17320.819043,8438.347739,-75537.016103
26817.429356,-15544.324782,10807.006753,-74158.044206
26817.431912,17764.942608,15100.201217,-74158.044206
26817.434468,-1036.288319,12879.583391,-77222.426198
26817.437023,10955.047942,8734.430116,-76915.987999
26817.439579,-1036.288319,15840.407159,-72472.634111
26817.442135,-7550.100608,19245.354492,-72779.072310
26817.444690,3256.906145,20725.766376,-74770.920605
26817.447246,-6365.771101,21910.095883,-73851.606007
26817.449802,13175.665768,20429.683999,-75077.358804
26817.452358,7105.977043,2664.741391,-75690.235202
26817.454913,-5329.482782,-15100.201217,-76149.892501
26817.457469,592.164754,-18061.024985,-77222.426198
26817.460025,-3701.029710,-13915.871710,-77069.207099
26817.462580,4737.318029,2516.700203,-77375.645298
26817.465136,7402.059420,10066.800811,-76149.892501
26817.467692,3701.029710,10362.883188,-74004.825107
26817.470247,1332.370696,10214.842000,-72472.634111
26817.472803,-888.247130,6809.894666,-76303.111601
26817.475359,-2220.617826,-3256.906145,-77835.302597
26817.477915,5181.441594,-1332.370696,-77069.207099
26817.480470,2516.700203,-1628.453072,-75843.454302
26817.483026,5921.647536,-2368.659014,-79520.712692
26817.485582,-2220.617826,-4293.194464,-76149.892501
26817.488137,740.205942,-1924.535449,-73238.729609
26817.490693,1628.453072,444.123565,-75383.797003
26817.493249,7402.059420,1924.535449,-77528.864398
26817.495804,3997.112087,3108.864956,-76456.330700
26817.498360,-1628.453072,0.000000,-74617.701505
26817.500916,-5773.606348,-3256.906145,-75230.577904
26817.503471,3404.947333,-5773.606348,-76303.111601
26817.506027,-1628.453072,14211.954086,-73545.167808
26817.508583,740.205942,22354.219448,-75077.358804
26817.511139,9326.594869,25463.084405,-74924.139704
26817.513694,-6513.812290,17320.819043,-73851.606007
26817.516250,4737.318029,10955.047942,-72779.072310
26817.518806,-2516.700203,5625.565159,-73391.948708
26817.521366,12731.542202,8438.347739,-76609.549800
26817.523926,4737.318029,10658.965565,-76915.987999
26817.526486,-296.082377,5329.482782,-75537.016103
26817.529047,4293.194464,9030.512492,-73851.606007
26817.531607,-5329.482782,14359.995275,-72472.634111
26817.534167,5625.565159,4885.359217,-76149.892501
26817.536727,-2072.576638,17024.736666,-72472.634111
26817.539288,9622.677246,12731.542202,-75996.673402
26817.541848,3849.070898,10955.047942,-76303.111601
26817.544408,5625.565159,13915.871710,-73391.948708
26817.546968,-5477.523971,17468.860231,-71859.757712
26817.549529,-148.041188,20429.683999,-74004.825107
26817.552089,-3108.864956,21465.972318,-74464.482406
26817.554649,7994.224174,25018.960840,-74158.044206
26817.557210,8142.265362,3256.906145,-76149.892501
26817.559770,-3404.947333,-9770.718434,-74924.139704
26817.562330,1628.453072,-20873.807564,-76456.330700
26817.564890,-3256.906145,-10510.924376,-77069.207099
26817.567451,7846.182985,-888.247130,-78141.740796
26817.570011,1184.329507,12583.501014,-76456.330700
26817.572571,12287.418637,7402.059420,-76456.330700
26817.575131,-8586.388927,10510.924376,-70940.443115
26817.577692,3404.947333,3701.029710,-73391.948708
26817.580252,444.123565,592.164754,-75996.673402
26817.582812,-4589.276840,-888.247130,-75230.577904
26817.585372,2072.576638,4145.153275,-73851.606007
26817.587933,8142.265362,-1332.370696,-78601.398095
26817.590493,-4589.276840,-3997.112087,-77835.302597
26817.593053,5033.400406,-3108.864956,-74617.701505
26817.595613,-444.123565,1036.288319,-73851.606007
26817.598174,11399.171507,1332.370696,-78907.836294
26817.600734,-3108.864956,1480.411884,-76609.549800
26817.603298,4441.235652,1628.453072,-74924.139704
26817.605863,-6661.853478,-3997.112087,-75383.797003
26817.608427,4293.194464,-4885.359217,-77375.645298
26817.610991,296.082377,14804.118840,-74311.263306
26817.613555,-888.247130,22058.137072,-74924.139704
26817.616120,11399.171507,27831.743419,-74617.701505
26817.618684,-9918.759623,15544.324782,-75077.358804
26817.621248,6661.853478,11695.253884,-73698.386908
26817.623813,-1924.535449,4589.276840,-74311.263306
26817.626377,6957.935855,10807.006753,-76303.111601
26817.628941,-1332.370696,8142.265362,-76762.768900
26817.631505,3404.947333,5181.441594,-75077.358804
26817.634070,-740.205942,15248.242405,-70634.004916
26817.636634,6365.771101,6217.729913,-75383.797003
26817.639198,-4737.318029,11843.295072,-75230.577904
26817.641763,6069.688724,10955.047942,-74464.482406
26817.644327,6661.853478,15988.448347,-75230.577904
26817.646891,6661.853478,9178.553681,-77375.645298
26817.649455,-5773.606348,14211.954086,-72779.072310
26817.652020,2220.617826,17912.983796,-72779.072310
26817.654584,-6957.935855,19541.436869,-72472.634111
26817.657148,1924.535449,24426.796086,-73851.606007
26817.659713,5329.482782,20281.642811,-75077.358804
26817.662277,12435.459826,740.205942,-76762.768900
26817.664841,-10214.842000,-15544.324782,-76456.330700
26817.667405,3849.070898,-21465.972318,-79061.055394
26817.669970,6069.688724,-9030.512492,-78141.740796
26817.672534,-1184.329507,4145.153275,-76762.768900
26817.675098,15248.242405,11991.336260,-77222.426198
26817.677663,-3701.029710,8290.306550,-74770.920605
26817.680227,4589.276840,7994.224174,-73698.386908
26817.682791,-12583.501014,1628.453072,-77835.302597
26817.685355,17172.777854,2072.576638,-78294.959896
26817.687920,-12287.418637,296.082377,-76609.549800
26817.690484,16136.489536,1332.370696,-75383.797003
26817.693048,-4885.359217,-1924.535449,-77682.083497
26817.695613,5329.482782,-6217.729913,-75077.358804
26817.698177,-8142.265362,-888.247130,-72319.415011
26817.700741,13027.624579,2072.576638,-75996.673402
26817.703305,0.000000,1184.329507,-78601.398095
26817.705872,4737.318029,3108.864956,-75843.454302
26817.708439,-6957.935855,-2960.823768,-74924.139704
26817.711005,2368.659014,-5625.565159,-75690.235202
26817.713572,2812.782580,4145.153275,-74770.920605
26817.716139,-3404.947333,21614.013506,-75077.358804
26817.718705,11991.336260,29608.237680,-73545.167808
26817.721272,-7254.018232,22798.343014,-73698.386908
26817.723839,3849.070898,11547.212695,-73698.386908
26817.726405,-740.205942,7254.018232,-72779.072310
26817.728972,6661.853478,6513.812290,-74464.482406
26817.731538,2072.576638,11251.130318,-76609.549800
26817.734105,6069.688724,7846.182985,-76609.549800
26817.736672,-740.205942,7994.224174,-73085.510509
26817.739238,3256.906145,8882.471304,-73545.167808
26817.741805,-3256.906145,6809.894666,-76303.111601
26817.744372,-444.123565,16876.695478,-73851.606007
26817.746938,8142.265362,15988.448347,-74617.701505
26817.749505,3701.029710,13915.871710,-75843.454302
26817.752071,4737.318029,13027.624579,-74004.825107
26817.754638,-3849.070898,17024.736666,-71553.319513
26817.757205,-2220.617826,19689.478057,-73391.948708
26817.759771,-3997.112087,24278.754898,-73391.948708
26817.762338,9326.594869,25018.960840,-75077.358804
26817.764905,7698.141797,3997.112087,-76915.987999
26817.767471,-3701.029710,-11991.336260,-76456.330700
26817.770038,-148.041188,-20429.683999,-78448.178995
26817.772604,-3552.988522,-12731.542202,-77069.207099
26817.775171,8438.347739,592.164754,-76149.892501
26817.777738,5181.441594,11843.295072,-75843.454302
26817.780304,8734.430116,6513.812290,-73698.386908
26817.782871,-4145.153275,9622.677246,-68948.594820
26817.785438,3997.112087,7402.059420,-71859.757712
26817.788004,-5625.565159,1332.370696,-76149.892501
26817.790571,4441.235652,-296.082377,-76915.987999
26817.793138,2516.700203,3108.864956,-72472.634111
26817.795704,6217.729913,-6217.729913,-78907.836294
26817.798271,-1036.288319,-5773.606348,-77835.302597
26817.800837,444.123565,-3256.906145,-74617.701505
26817.803404,3256.906145,3108.864956,-75996.673402
26817.805971,6661.853478,888.247130,-78907.836294
26817.808539,0.000000,3404.947333,-77835.302597
26817.811108,-2812.782580,-592.164754,-76149.892501
26817.813677,1184.329507,-7550.100608,-77069.207099
26817.816246,-1628.453072,6957.935855,-73238.729609
26817.818814,888.247130,19689.478057,-74004.825107
26817.821383,5921.647536,29756.278868,-73851.606007
26817.823952,592.164754,21762.054695,-73698.386908
26817.826520,-1628.453072,11251.130318,-73238.729609
26817.829089,1480.411884,5033.400406,-73851.606007
26817.831658,3108.864956,8290.306550,-74464.482406
26817.834227,3849.070898,8142.265362,-78448.178995
26817.836795,-1184.329507,5625.565159,-78294.959896
26817.839364,9178.553681,9178.553681,-74924.139704
26817.841933,-7698.141797,11843.295072,-73851.606007
26817.844501,2072.576638,10214.842000,-76609.549800
26817.847070,2812.782580,14952.160028,-72166.195912
26817.849639,2516.700203,15840.407159,-74770.920605
26817.852208,9770.718434,12731.542202,-76456.330700
26817.854776,-5329.482782,13471.748144,-74617.701505
26817.857345,6661.853478,15544.324782,-73391.948708
26817.859914,-9622.677246,19689.478057,-72932.291410
26817.862482,4885.359217,21614.013506,-73851.606007
26817.865051,4441.235652,23982.672521,-73698.386908
26817.867620,4441.235652,-3701.029710,-77528.864398
26817.870189,-592.164754,-18357.107362,-77682.083497
26817.872757,-7550.100608,-19837.519246,-78141.740796
26817.875326,8586.388927,-11103.089130,-78754.617194
26817.877895,-888.247130,7105.977043,-75690.235202
26817.880463,14656.077652,11103.089130,-77988.521696
26817.883032,2072.576638,5921.647536,-75230.577904
26817.885601,296.082377,7254.018232,-70634.004916
26817.888170,2664.741391,10955.047942,-74617.701505
26817.890738,-3256.906145,-3256.906145,-79520.712692
26817.893307,10658.965565,2368.659014,-75996.673402
26817.895876,-2220.617826,148.041188,-73851.606007
26817.898444,9770.718434,-3404.947333,-78294.959896
26817.901013,-5921.647536,-10955.047942,-77222.426198
26817.903582,6069.688724,1036.288319,-74311.263306
26817.906151,5033.400406,-444.123565,-77222.426198
26817.908719,148.041188,1184.329507,-77988.521696
26817.911290,148.041188,888.247130,-75843.454302
26817.913860,-2812.782580,-6069.688724,-75843.454302
26817.916431,4589.276840,-3701.029710,-75383.797003
26817.919002,-444.123565,11251.130318,-72779.072310
26817.921572,-148.041188,24426.796086,-75537.016103
26817.924143,11399.171507,26203.290347,-73851.606007
26817.926713,-8882.471304,19837.519246,-73391.948708
26817.929284,6069.688724,8142.265362,-74158.044206
26817.931854,-1332.370696,4737.318029,-74158.044206
26817.934425,13619.789333,8290.306550,-77222.426198
26817.936995,-4293.194464,7846.182985,-78141.740796
26817.939566,11695.253884,8734.430116,-75537.016103
26817.942137,-6957.935855,9622.677246,-72625.853210
26817.944707,2664.741391,10362.883188,-73545.167808
26817.947278,1776.494261,9770.718434,-75383.797003
26817.949848,888.247130,18505.148550,-73391.948708
26817.952419,14656.077652,17172.777854,-75383.797003
26817.954989,-4441.235652,12731.542202,-76303.111601
26817.957560,4441.235652,13915.871710,-73085.510509
26817.960131,-8882.471304,16432.571912,-72319.415011
26817.962701,592.164754,22354.219448,-73698.386908
26817.965272,592.164754,28571.949361,-73545.167808
26817.967842,20429.683999,7550.100608,-77069.207099
26817.970413,-14508.036463,-9474.636058,-76303.111601
26817.972983,3552.988522,-22058.137072,-77528.864398
26817.975554,-5921.647536,-12879.583391,-77835.302597
26817.978124,12435.459826,0.000000,-77988.521696
26817.980695,-2220.617826,11991.336260,-76762.768900
26817.983266,18505.148550,8586.388927,-76762.768900
26817.985836,-11547.212695,2368.659014,-72319.415011
26817.988407,5181.441594,2960.823768,-73698.386908
26817.990977,-5181.441594,4293.194464,-76609.549800
26817.993548,3997.112087,-1332.370696,-79061.055394
26817.996118,4145.153275,8438.347739,-72625.853210
26817.998689,1184.329507,-6513.812290,-78294.959896
26818.001259,3997.112087,-8438.347739,-76762.768900
26818.003830,-444.123565,-5477.523971,-75077.358804
26818.006401,5033.400406,2516.700203,-75230.577904
26818.008971,444.123565,740.205942,-79061.055394
26818.011542,5625.565159,3404.947333,-77069.207099
26818.014080,-2516.700203,-5329.482782,-74924.139704
26818.016617,740.205942,-6809.894666,-75690.235202
26818.019155,2516.700203,11547.212695,-74464.482406
26818.021693,-3552.988522,20577.725188,-75230.577904
26818.024231,14359.995275,29164.114115,-74158.044206
26818.026769,-11399.171507,19393.395680,-74464.482406
26818.029307,7550.100608,11547.212695,-74770.920605
26818.031845,-7254.018232,3701.029710,-74004.825107
26818.034382,10362.883188,11103.089130,-73698.386908
26818.036920,-1036.288319,6809.894666,-76609.549800
26818.039458,3997.112087,12583.501014,-73085.510509
26818.041996,6809.894666,5329.482782,-73698.386908
26818.044534,-5773.606348,9622.677246,-73238.729609
26818.047072,3108.864956,6217.729913,-76915.987999
26818.049610,296.082377,16580.613101,-72625.853210
26818.052147,10510.924376,18801.230927,-73851.606007
26818.054685,1480.411884,11843.295072,-77222.426198
26818.057223,444.123565,14656.077652,-74004.825107
26818.059761,-5773.606348,15988.448347,-72472.634111
26818.062299,-1480.411884,21317.931130,-74464.482406
26818.064837,5921.647536,29016.072926,-73391.948708
26818.067375,13767.830521,7550.100608,-75996.673402
26818.069912,-5477.523971,-8882.471304,-74770.920605
26818.072450,3701.029710,-20133.601622,-77069.207099
26818.074988,-8882.471304,-12139.377449,-76915.987999
26818.077526,12139.377449,-444.123565,-77375.645298
26818.080064,1924.535449,12879.583391,-76456.330700
26818.082602,13175.665768,7550.100608,-76609.549800
26818.085139,-8586.388927,2812.782580,-71553.319513
26818.087677,6957.935855,7254.018232,-72625.853210
26818.090215,-7846.182985,4737.318029,-76456.330700
26818.092753,11251.130318,-1036.288319,-79980.369991
26818.095291,2220.617826,3256.906145,-75077.358804
26818.097829,7402.059420,-6513.812290,-78448.178995
26818.100367,148.041188,-10658.965565,-76609.549800
26818.102904,148.041188,-3552.988522,-73851.606007
26818.105442,5033.400406,296.082377,-75230.577904
26818.107980,-1776.494261,4145.153275,-78448.178995
26818.110518,4737.318029,740.205942,-77682.083497
26818.113056,-1184.329507,-3404.947333,-75843.454302
26818.115601,888.247130,-4145.153275,-74158.044206
26818.118147,-2368.659014,15100.201217,-74158.044206
26818.120692,4737.318029,25611.125593,-74004.825107
26818.123238,5773.606348,26351.331535,-73391.948708
26818.125783,-5181.441594,18801.230927,-71706.538613
26818.128328,1480.411884,6809.894666,-75077.358804
26818.130874,-740.205942,4589.276840,-73391.948708
26818.133419,6217.729913,10214.842000,-73698.386908
26818.135965,592.164754,10807.006753,-76762.768900
26818.138510,3849.070898,7402.059420,-74311.263306
26818.141055,-5477.523971,9178.553681,-72932.291410
26818.143601,1332.370696,11103.089130,-74617.701505
26818.146146,-3701.029710,7994.224174,-75383.797003
26818.148692,10362.883188,20725.766376,-72625.853210
26818.151237,2368.659014,18357.107362,-75230.577904
26818.153783,6217.729913,15692.365970,-74924.139704
26818.156328,888.247130,13471.748144,-73851.606007
26818.158873,-9474.636058,16580.613101,-73238.729609
26818.161419,2220.617826,25167.002028,-74617.701505
26818.163964,8586.388927,21614.013506,-75230.577904
26818.166510,8734.430116,-148.041188,-76609.549800
26818.169055,-5773.606348,-15396.283594,-75996.673402
26818.171600,-1184.329507,-21762.054695,-77835.302597
26818.174146,-148.041188,-10214.842000,-77528.864398
26818.176691,1776.494261,11695.253884,-74924.139704
26818.179237,11843.295072,10362.883188,-76762.768900
26818.181782,-2664.741391,6069.688724,-72319.415011
26818.184327,-6661.853478,148.041188,-70327.566716
26818.186873,5033.400406,10510.924376,-72472.634111
26818.189418,-3552.988522,-2368.659014,-78754.617194
26818.191964,4589.276840,2072.576638,-79061.055394
26818.194509,1776.494261,2072.576638,-75996.673402
26818.197055,8882.471304,-13471.748144,-78601.398095
26818.199600,-2516.700203,-8142.265362,-74770.920605
26818.202145,8438.347739,-5033.400406,-75690.235202
26818.204691,-5921.647536,5921.647536,-75383.797003
26818.207236,11251.130318,3256.906145,-78141.740796
26818.209782,-7105.977043,296.082377,-76149.892501
26818.212327,5625.565159,-9030.512492,-75690.235202
26818.214872,-4441.235652,1776.494261,-73545.167808
26818.217425,2072.576638,15100.201217,-75843.454302
26818.219977,12583.501014,29756.278868,-74158.044206
26818.222529,-5921.647536,22354.219448,-73391.948708
26818.225082,2516.700203,12879.583391,-73238.729609
26818.227634,-4441.235652,2812.782580,-74770.920605
26818.230186,2368.659014,6661.853478,-72932.291410
26818.232739,1628.453072,9622.677246,-78754.617194
26818.235291,6217.729913,8290.306550,-77528.864398
26818.237843,1776.494261,8438.347739,-74158.044206
26818.240396,-5477.523971,9622.677246,-73085.510509
26818.242948,6217.729913,2960.823768,-76456.330700
26818.245500,-4145.153275,16284.530724,-73085.510509
26818.248053,15840.407159,22058.137072,-72625.853210
26818.250605,-5181.441594,15988.448347,-75843.454302
26818.253157,6957.935855,13323.706956,-74617.701505
26818.255710,-9918.759623,14508.036463,-72472.634111
26818.258262,888.247130,24130.713709,-73085.510509
26818.260814,8734.430116,24278.754898,-74464.482406
26818.263367,9622.677246,5477.523971,-75230.577904
26818.265919,-3256.906145,-14063.912898,-76915.987999
26818.268471,-592.164754,-21910.095883,-76456.330700
26818.271024,12435.459826,-11399.171507,-78601.398095
26818.273576,-6069.688724,7698.141797,-76149.892501
26818.276128,20133.601622,14508.036463,-77375.645298
26818.278680,-2072.576638,7846.182985,-74924.139704
26818.281233,3849.070898,4293.194464,-72932.291410
26818.283785,-9030.512492,-444.123565,-74770.920605
26818.286337,4737.318029,5921.647536,-78601.398095
26818.288890,148.041188,3552.988522,-77528.864398
26818.291442,7550.100608,1332.370696,-75230.577904
26818.293994,5033.400406,-9622.677246,-75690.235202
26818.296547,1036.288319,-11547.212695,-74770.920605
26818.299099,2220.617826,-3997.112087,-73545.167808
26818.301651,296.082377,2220.617826,-76303.111601
26818.304204,1332.370696,3849.070898,-77988.521696
26818.306756,3701.029710,444.123565,-76303.111601
26818.309308,-2516.700203,-8142.265362,-75843.454302
26818.311861,3701.029710,8142.265362,-73391.948708
26818.314413,-8882.471304,18801.230927,-75077.358804
26818.316965,19245.354492,28127.825796,-74617.701505
26818.319494,-10658.965565,22502.260637,-71706.538613
26818.322018,4293.194464,11547.212695,-73545.167808
26818.324542,-9030.512492,3108.864956,-74770.920605
26818.327067,8290.306550,5921.647536,-73238.729609
26818.329591,3552.988522,10658.965565,-76915.987999
26818.332115,-592.164754,12583.501014,-75690.235202
26818.334639,3997.112087,9622.677246,-72166.195912
26818.337164,2368.659014,8142.265362,-72932.291410
26818.339688,-5329.482782,6957.935855,-75383.797003
26818.342212,6513.812290,13323.706956,-74464.482406
26818.344737,3997.112087,20873.807564,-74158.044206
26818.347261,7550.100608,17616.901420,-75690.235202
26818.349785,-888.247130,13915.871710,-75077.358804
26818.352310,-7994.224174,14952.160028,-72166.195912
26818.354834,1184.329507,25907.207970,-71859.757712
26818.357358,6069.688724,22650.301825,-74311.263306
26818.359883,7994.224174,740.205942,-77835.302597
26818.362407,-3404.947333,-14359.995275,-77222.426198
26818.364931,740.205942,-21465.972318,-78141.740796
26818.367456,148.041188,-13619.789333,-78448.178995
26818.369980,3849.070898,7698.141797,-75690.235202
26818.372504,13323.706956,13175.665768,-77069.207099
26818.375029,148.041188,5329.482782,-74311.263306
26818.377553,0.000000,4145.153275,-71400.100414
26818.380077,-3997.112087,740.205942,-74924.139704
26818.382602,4885.359217,-148.041188,-81206.122788
26818.385126,-3552.988522,9622.677246,-75843.454302
26818.387650,13767.830521,1628.453072,-77682.083497
26818.390174,-740.205942,-10066.800811,-77682.083497
26818.392699,2072.576638,-10066.800811,-73545.167808
26818.395223,2220.617826,-1184.329507,-74158.044206
26818.397747,-1776.494261,2664.741391,-77222.426198
26818.400272,3404.947333,3552.988522,-77988.521696
26818.402796,2220.617826,-2664.741391,-76762.768900
26818.405320,2516.700203,-8586.388927,-77069.207099
26818.407845,-3997.112087,10807.006753,-72932.291410
26818.410369,740.205942,18653.189738,-75383.797003
26818.412893,11251.130318,27535.661042,-74617.701505
26818.415418,-5921.647536,19393.395680,-72319.415011
26818.417942,1036.288319,6661.853478,-75077.358804
26818.420444,444.123565,1924.535449,-74617.701505
26818.422947,3701.029710,7402.059420,-74924.139704
26818.425449,7846.182985,9770.718434,-77835.302597
26818.427951,888.247130,11103.089130,-76456.330700
26818.430454,2368.659014,6217.729913,-74770.920605
26818.432956,-3849.070898,10807.006753,-72779.072310
26818.435459,0.000000,6217.729913,-75077.358804
26818.437961,9030.512492,20281.642811,-72932.291410
26818.440463,1924.535449,17764.942608,-75537.016103
26818.442966,5773.606348,19985.560434,-73545.167808
26818.445468,-6069.688724,14211.954086,-73085.510509
26818.447970,-3108.864956,18801.230927,-71093.662214
26818.450473,-1628.453072,27387.619854,-72319.415011
26818.452975,16580.613101,15396.283594,-75996.673402
26818.455477,-6069.688724,-4293.194464,-75383.797003
26818.457980,6217.729913,-22946.384202,-77375.645298
26818.460482,-12287.418637,-14804.118840,-76915.987999
26818.462984,13471.748144,-8142.265362,-78907.836294
26818.465487,2516.700203,15396.283594,-75996.673402
26818.467989,13619.789333,12879.583391,-75077.358804
26818.470492,-2220.617826,4737.318029,-72472.634111
26818.472994,1924.535449,1480.411884,-71400.100414
26818.475496,-2960.823768,-1924.535449,-79061.055394
26818.477999,-1184.329507,7254.018232,-80286.808190
26818.480501,8438.347739,6513.812290,-76609.549800
26818.483003,2664.741391,-4885.359217,-76762.768900
26818.485506,2220.617826,-10362.883188,-74617.701505
26818.488008,1036.288319,-9178.553681,-74004.825107
26818.490510,-2368.659014,444.123565,-75077.358804
26818.493013,5921.647536,3701.029710,-77222.426198
26818.495515,148.041188,1036.288319,-77069.207099
26818.498018,5625.565159,-7402.059420,-76149.892501
26818.500520,-6957.935855,6217.729913,-73085.510509
26818.503022,3552.988522,15544.324782,-74924.139704
26818.505525,6809.894666,29164.114115,-73851.606007
26818.508027,1332.370696,22946.384202,-73545.167808
26818.510529,-2220.617826,13767.830521,-73238.729609
26818.513032,3552.988522,888.247130,-75996.673402
26818.515534,10658.965565,5033.400406,-75537.016103
26818.518036,-1480.411884,10658.965565,-77375.645298
26818.520522,3552.988522,7698.141797,-78754.617194
26818.523008,9918.759623,8734.430116,-74924.139704
26818.525494,-10955.047942,8586.388927,-71553.319513
26818.527979,6513.812290,4293.194464,-76915.987999
26818.530465,-5329.482782,15988.448347,-74924.139704
26818.532951,15100.201217,20577.725188,-74004.825107
26818.535437,296.082377,19837.519246,-74617.701505
26818.537922,-3108.864956,16136.489536,-73391.948708
26818.540408,-2812.782580,17616.901420,-71400.100414
26818.542894,-4145.153275,27387.619854,-72012.976812
26818.545380,17024.736666,15840.407159,-76149.892501
26818.547866,-7550.100608,-740.205942,-75230.577904
26818.550351,11991.336260,-16580.613101,-77988.521696
26818.552837,-13175.665768,-18949.272115,-77835.302597
26818.555323,13619.789333,-8586.388927,-78448.178995
26818.557809,-5477.523971,12879.583391,-75383.797003
26818.560294,15248.242405,14656.077652,-74617.701505
26818.562780,-4293.194464,3849.070898,-71553.319513
26818.565266,4293.194464,-2664.741391,-73545.167808
26818.567752,-444.123565,4589.276840,-74617.701505
26818.570237,1036.288319,3108.864956,-80440.027290
26818.572723,6957.935855,13323.706956,-75383.797003
26818.575209,5181.441594,-5181.441594,-76149.892501
26818.577695,4145.153275,-9622.677246,-75077.358804
26818.580180,1036.288319,-9622.677246,-75077.358804
26818.582666,1628.453072,-1184.329507,-75690.235202
26818.585152,2812.782580,5181.441594,-77835.302597
26818.587638,4589.276840,1036.288319,-77988.521696
26818.590123,1480.411884,-7105.977043,-76915.987999
26818.592609,-1332.370696,3108.864956,-72779.072310
26818.595095,-1776.494261,13027.624579,-75996.673402
26818.597581,17616.901420,29756.278868,-74311.263306
26818.600066,-8438.347739,23538.548956,-72472.634111
26818.602552,3849.070898,12287.418637,-73391.948708
26818.605038,-1924.535449,148.041188,-75230.577904
26818.607524,3552.988522,-296.082377,-74617.701505
26818.610009,-2664.741391,8882.471304,-75843.454302
26818.612495,9326.594869,10955.047942,-76149.892501
26818.614981,-3256.906145,11843.295072,-73085.510509
26818.617467,3849.070898,5625.565159,-73238.729609
26818.619972,-4885.359217,7402.059420,-74158.044206
26818.622478,6957.935855,15988.448347,-75230.577904
26818.624983,4145.153275,20281.642811,-75996.673402
26818.627489,2812.782580,20725.766376,-74924.139704
26818.629995,-148.041188,14804.118840,-74770.920605
26818.632500,-5329.482782,17320.819043,-72166.195912
26818.635006,-2072.576638,26795.455100,-71093.662214
26818.637511,9770.718434,13175.665768,-76456.330700
26818.640017,-2516.700203,-4589.276840,-76303.111601
26818.642523,2220.617826,-19245.354492,-76609.549800
26818.645028,-3404.947333,-16136.489536,-76762.768900
26818.647534,4145.153275,-740.205942,-77375.645298
26818.650039,8142.265362,15544.324782,-77069.207099
26818.652545,8586.388927,11991.336260,-76762.768900
26818.655051,-2220.617826,3256.906145,-73085.510509
26818.657556,1924.535449,-2220.617826,-74617.701505
26818.660062,1332.370696,3701.029710,-76456.330700
26818.662567,-2220.617826,8290.306550,-77682.083497
26818.665073,9918.759623,7698.141797,-75077.358804
26818.667579,3108.864956,-6957.935855,-77835.302597
26818.670084,4737.318029,-11547.212695,-75077.358804
26818.672590,-1036.288319,-5625.565159,-74464.482406
26818.675095,296.082377,1480.411884,-76915.987999
26818.677601,-444.123565,6365.771101,-77375.645298
26818.680107,8438.347739,-1776.494261,-77988.521696
26818.682612,1036.288319,-6957.935855,-75690.235202
26818.685118,-4737.318029,8586.388927,-72625.853210
26818.687623,3701.029710,25759.166782,-74158.044206
26818.690129,7846.182985,24722.878463,-75537.016103
26818.692635,-2664.741391,22502.260637,-72319.415011
26818.695140,1776.494261,2960.823768,-75537.016103
26818.697646,-2368.659014,-888.247130,-74617.701505
26818.700151,3997.112087,7402.059420,-73545.167808
26818.702657,-1776.494261,8734.430116,-78294.959896
26818.705163,13619.789333,12731.542202,-76149.892501
26818.707668,2220.617826,8290.306550,-71093.662214
26818.710174,-6217.729913,4589.276840,-73391.948708
26818.712679,5625.565159,11547.212695,-74311.263306
26818.715185,740.205942,17912.983796,-75996.673402
26818.717691,9622.677246,21465.972318,-75383.797003
26818.720213,-2072.576638,15840.407159,-75690.235202
26818.722736,-4589.276840,16432.571912,-73545.167808
26818.725258,-2812.782580,19541.436869,-72779.072310
26818.727781,9178.553681,21021.848753,-74464.482406
26818.730303,1776.494261,-444.123565,-76456.330700
26818.732826,2368.659014,-12287.418637,-77222.426198
26818.735348,-4441.235652,-20133.601622,-77375.645298
26818.737871,2368.659014,-11991.336260,-78294.959896
26818.740393,-148.041188,10658.965565,-75077.358804
26818.742916,8142.265362,14952.160028,-77375.645298
26818.745438,6365.771101,11251.130318,-73851.606007
26818.747961,-2812.782580,5033.400406,-70940.443115
26818.750483,2072.576638,-4293.194464,-77222.426198
26818.753006,-296.082377,9178.553681,-77069.207099
26818.755528,8734.430116,11251.130318,-75690.235202
26818.758051,888.247130,1776.494261,-76303.111601
26818.760573,6809.894666,-10362.883188,-74311.263306
26818.763096,-2220.617826,-11843.295072,-73851.606007
26818.765618,-148.041188,-3108.864956,-75537.016103
26818.768141,2220.617826,1776.494261,-77528.864398
26818.770663,-3701.029710,888.247130,-78601.398095
26818.773186,9474.636058,-10066.800811,-76762.768900
26818.775708,-7105.977043,5921.647536,-71859.757712
26818.778231,1332.370696,13027.624579,-75077.358804
26818.780753,8882.471304,30200.402434,-73545.167808
26818.783276,-2960.823768,24574.837274,-72472.634111
26818.785799,2960.823768,15840.407159,-73545.167808
26818.788321,1184.329507,-2664.741391,-75690.235202
26818.790844,-296.082377,2664.741391,-75077.358804
26818.793366,9326.594869,13323.706956,-76149.892501
26818.795889,-9178.553681,8734.430116,-76456.330700
26818.798411,11547.212695,8882.471304,-73545.167808
26818.800934,-10658.965565,1036.288319,-73851.606007
26818.803456,5921.647536,10658.965565,-72472.634111
26818.805979,2664.741391,15100.201217,-74770.920605
26818.808501,4885.359217,21021.848753,-75077.358804
26818.811024,12731.542202,18209.066173,-74924.139704
26818.813546,-17320.819043,15988.448347,-73391.948708
26818.816069,9326.594869,17912.983796,-73391.948708
26818.818591,-8142.265362,25907.207970,-72012.976812
26818.821127,19689.478057,3701.029710,-77835.302597
26818.823663,-8882.471304,-8438.347739,-75996.673402
26818.826199,5329.482782,-20873.807564,-77528.864398
26818.828735,-9178.553681,-13767.830521,-76456.330700
26818.831271,1924.535449,10807.006753,-74617.701505
26818.833807,10955.047942,13323.706956,-77835.302597
26818.836343,3404.947333,11251.130318,-74924.139704
26818.838879,-1184.329507,-444.123565,-72472.634111
26818.841415,0.000000,2072.576638,-73851.606007
26818.843951,3108.864956,3997.112087,-78141.740796
26818.846487,296.082377,17320.819043,-76762.768900
