#time,accel_x,accel_y,accel_z
27352.721304,1184.329507,6365.771101,-75537.016103
27352.723856,1184.329507,6365.771101,-75690.235202
27352.726409,1628.453072,6809.894666,-75077.358804
27352.728961,1776.494261,6365.771101,-74924.139704
27352.731515,1628.453072,6069.688724,-75077.358804
27352.734069,1628.453072,6809.894666,-75383.797003
27352.736623,1332.370696,7254.018232,-75383.797003
27352.739177,5033.400406,4737.318029,-75537.016103
27352.741730,3404.947333,8734.430116,-74924.139704
27352.744284,10362.883188,5033.400406,-74924.139704
27352.746838,3701.029710,9326.594869,-74158.044206
27352.749392,8586.388927,5033.400406,-76456.330700
27352.751946,2220.617826,7402.059420,-74924.139704
27352.754500,8142.265362,4145.153275,-75690.235202
27352.757054,296.082377,7254.018232,-74158.044206
27352.759608,3256.906145,6513.812290,-75843.454302
27352.762162,2960.823768,6661.853478,-74617.701505
27352.764716,5625.565159,5773.606348,-75383.797003
27352.767270,11991.336260,7550.100608,-74311.263306
27352.769824,8290.306550,5329.482782,-74924.139704
27352.772378,2368.659014,6365.771101,-74770.920605
27352.774932,-8882.471304,6809.894666,-75690.235202
27352.777486,-12731.542202,6957.935855,-76609.549800
27352.780040,-2812.782580,6809.894666,-75077.358804
27352.782594,5329.482782,3701.029710,-75230.577904
27352.785148,10807.006753,9030.512492,-74464.482406
27352.787701,-148.041188,5625.565159,-75996.673402
27352.790255,148.041188,9030.512492,-74464.482406
27352.792809,-10955.047942,4145.153275,-76149.892501
27352.795363,-13175.665768,5181.441594,-74924.139704
27352.797917,-1776.494261,5033.400406,-75537.016103
27352.800471,1480.411884,6069.688724,-75843.454302
27352.803025,5625.565159,5921.647536,-76303.111601
27352.805579,444.123565,7994.224174,-74617.701505
27352.808133,-4589.276840,4145.153275,-74770.920605
27352.810687,-7105.977043,5477.523971,-75230.577904
27352.813241,-1332.370696,6809.894666,-74770.920605
27352.815795,8142.265362,6217.729913,-75690.235202
27352.818349,444.123565,8142.265362,-74617.701505
27352.820903,8586.388927,4737.318029,-76762.768900
27352.823457,-15396.283594,6513.812290,-74617.701505
27352.826011,3997.112087,5773.606348,-75843.454302
27352.828565,-7402.059420,7105.977043,-75383.797003
27352.831119,8586.388927,6957.935855,-77375.645298
27352.833520,-444.123565,7105.977043,-75230.577904
27352.835921,2812.782580,4441.235652,-75230.577904
27352.838322,-6809.894666,6809.894666,-75383.797003
27352.840723,-6809.894666,3256.906145,-75843.454302
27352.843124,-2664.741391,11103.089130,-74004.825107
27352.845525,13175.665768,5033.400406,-76303.111601
27352.847926,6661.853478,9770.718434,-74004.825107
27352.850327,5181.441594,2960.823768,-74617.701505
27352.852728,-18653.189738,5625.565159,-74924.139704
27352.855129,-5773.606348,2664.741391,-76303.111601
27352.857530,5625.565159,11547.212695,-74004.825107
27352.859931,12287.418637,4145.153275,-78141.740796
27352.862332,17172.777854,7846.182985,-74464.482406
27352.864733,2220.617826,5181.441594,-73238.729609
27352.867134,-5625.565159,4441.235652,-75383.797003
27352.869535,4885.359217,6957.935855,-75383.797003
27352.871936,148.041188,9030.512492,-74004.825107
27352.874337,19245.354492,5625.565159,-76609.549800
27352.876738,0.000000,10510.924376,-74617.701505
27352.879139,8586.388927,1036.288319,-76303.111601
27352.881540,-5773.606348,7698.141797,-73085.510509
27352.883941,3997.112087,4441.235652,-76149.892501
27352.886342,6217.729913,9770.718434,-74924.139704
27352.888743,16580.613101,6217.729913,-75383.797003
27352.891144,8438.347739,7105.977043,-73238.729609
27352.893545,2664.741391,4737.318029,-74004.825107
27352.895946,-592.164754,2812.782580,-74924.139704
27352.898347,5329.482782,7254.018232,-74770.920605
27352.900748,23982.672521,5181.441594,-76303.111601
27352.903149,-16876.695478,10955.047942,-74464.482406
27352.905550,33753.390955,3552.988522,-76456.330700
27352.907951,-13767.830521,7105.977043,-73698.386908
27352.910352,16284.530724,4441.235652,-74158.044206
27352.912753,-14359.995275,4441.235652,-74464.482406
27352.915154,17764.942608,8438.347739,-75537.016103
27352.917555,-5773.606348,6957.935855,-75843.454302
27352.919956,10510.924376,11251.130318,-74617.701505
27352.922357,4589.276840,2812.782580,-76303.111601
27352.924758,444.123565,5477.523971,-73545.167808
27352.927159,-740.205942,7105.977043,-74924.139704
27352.929618,2072.576638,3552.988522,-75690.235202
27352.932078,6217.729913,10658.965565,-74004.825107
27352.934538,15840.407159,5033.400406,-75843.454302
27352.936997,10510.924376,7105.977043,-74311.263306
27352.939457,4589.276840,5773.606348,-74004.825107
27352.941916,-8142.265362,5329.482782,-75230.577904
27352.944376,-1036.288319,5773.606348,-76303.111601
27352.946836,4737.318029,5773.606348,-75690.235202
27352.949295,9178.553681,3997.112087,-74770.920605
27352.951755,-5921.647536,8586.388927,-74158.044206
27352.954215,-2812.782580,5625.565159,-77835.302597
27352.956674,-6069.688724,8586.388927,-73545.167808
27352.959134,148.041188,2072.576638,-74464.482406
27352.961593,9030.512492,9770.718434,-73698.386908
27352.964053,4293.194464,5181.441594,-77528.864398
27352.966513,-3552.988522,12139.377449,-74464.482406
27352.968972,-5329.482782,1036.288319,-77375.645298
27352.971432,-15692.365970,8290.306550,-73085.510509
27352.973891,2072.576638,-740.205942,-76609.549800
27352.976351,7105.977043,14211.954086,-72625.853210
27352.978811,6365.771101,4441.235652,-78141.740796
27352.981270,148.041188,10066.800811,-74770.920605
27352.983730,1776.494261,1924.535449,-76456.330700
27352.986190,-13323.706956,6957.935855,-73391.948708
27352.988649,2960.823768,5181.441594,-75690.235202
27352.991109,-8438.347739,7254.018232,-74464.482406
27352.993568,18357.107362,7550.100608,-75843.454302
27352.996028,-4441.235652,9770.718434,-73851.606007
27352.998488,2072.576638,444.123565,-77375.645298
27353.000947,-11103.089130,9918.759623,-73085.510509
27353.003407,-296.082377,1924.535449,-76456.330700
27353.005866,-8438.347739,11547.212695,-74770.920605
27353.008368,6513.812290,5477.523971,-77528.864398
27353.010866,-3997.112087,9622.677246,-74617.701505
27353.013365,2516.700203,4145.153275,-76609.549800
27353.015863,-4145.153275,7994.224174,-73391.948708
27353.018362,1036.288319,4589.276840,-74770.920605
27353.020860,-3108.864956,7105.977043,-74311.263306
27353.023359,888.247130,8290.306550,-75690.235202
27353.025857,-7105.977043,3997.112087,-75537.016103
27353.028356,-888.247130,9178.553681,-74464.482406
27353.030854,5329.482782,3849.070898,-75843.454302
27353.033352,6365.771101,9326.594869,-74617.701505
27353.035851,1628.453072,3701.029710,-75077.358804
27353.038349,-13471.748144,4441.235652,-75843.454302
27353.040848,888.247130,5773.606348,-74924.139704
27353.043346,6365.771101,9622.677246,-75077.358804
27353.045845,12435.459826,3997.112087,-76762.768900
27353.048343,18801.230927,6513.812290,-74311.263306
27353.050842,-1332.370696,5773.606348,-74158.044206
27353.053340,4589.276840,6365.771101,-75230.577904
27353.055839,592.164754,7105.977043,-75996.673402
27353.058337,3404.947333,6217.729913,-75383.797003
27353.060836,17764.942608,7550.100608,-74924.139704
27353.063334,-740.205942,9622.677246,-74617.701505
27353.065833,6365.771101,1184.329507,-75843.454302
27353.068331,-5329.482782,9918.759623,-72625.853210
27353.070830,4589.276840,3997.112087,-77988.521696
27353.073328,-740.205942,8586.388927,-75383.797003
27353.075827,20429.683999,6809.894666,-76303.111601
27353.078325,2368.659014,4589.276840,-75230.577904
27353.080824,13471.748144,4589.276840,-76915.987999
27353.083322,-16284.530724,4885.359217,-74311.263306
27353.085820,23538.548956,6069.688724,-75996.673402
27353.088319,-12731.542202,10214.842000,-74464.482406
27353.090817,10955.047942,6513.812290,-76609.549800
27353.093316,6365.771101,7698.141797,-73851.606007
27353.095814,4441.235652,6513.812290,-74770.920605
27353.098313,-740.205942,2812.782580,-75690.235202
27353.100811,-11399.171507,7846.182985,-73238.729609
27353.103310,21317.931130,5477.523971,-76762.768900
27353.105808,-4441.235652,10658.965565,-74158.044206
27353.108335,10807.006753,3552.988522,-75996.673402
27353.110861,-4885.359217,7105.977043,-73698.386908
27353.113387,5625.565159,5625.565159,-74924.139704
27353.115914,592.164754,4145.153275,-75077.358804
27353.118440,9474.636058,7402.059420,-74464.482406
27353.120967,15544.324782,11695.253884,-74617.701505
27353.123493,4737.318029,2664.741391,-76762.768900
27353.126019,888.247130,7105.977043,-73698.386908
27353.128546,-1480.411884,6957.935855,-76303.111601
27353.131072,-296.082377,5329.482782,-76149.892501
27353.133599,13619.789333,3849.070898,-75996.673402
27353.136125,0.000000,10658.965565,-73238.729609
27353.138651,-11547.212695,4885.359217,-76762.768900
27353.141178,-1628.453072,5625.565159,-75690.235202
27353.143704,-7402.059420,5773.606348,-74004.825107
27353.146231,9918.759623,3108.864956,-75537.016103
27353.148757,9474.636058,11251.130318,-74311.263306
27353.151283,-1184.329507,5773.606348,-76149.892501
27353.153810,-888.247130,10362.883188,-75077.358804
27353.156336,-11251.130318,3404.947333,-75996.673402
27353.158862,-15692.365970,5477.523971,-74924.139704
27353.161389,15840.407159,5625.565159,-75230.577904
27353.163915,740.205942,11547.212695,-74617.701505
27353.166442,3108.864956,3701.029710,-77682.083497
27353.168968,-3256.906145,9178.553681,-73851.606007
27353.171494,-4441.235652,3997.112087,-76303.111601
27353.174021,-12583.501014,5773.606348,-74770.920605
27353.176547,7105.977043,6957.935855,-75383.797003
27353.179074,148.041188,9474.636058,-74464.482406
27353.181600,25759.166782,2960.823768,-77835.302597
27353.184126,-24130.713709,11843.295072,-73851.606007
27353.186653,20429.683999,-296.082377,-76149.892501
27353.189179,-30644.525999,12139.377449,-71859.757712
27353.191706,19245.354492,2664.741391,-76609.549800
27353.194232,-16284.530724,11251.130318,-75230.577904
27353.196758,17912.983796,5329.482782,-76762.768900
27353.199285,-11103.089130,8586.388927,-73545.167808
27353.201811,0.000000,2960.823768,-76609.549800
27353.204338,-5033.400406,6069.688724,-74158.044206
27353.206864,-888.247130,6809.894666,-75843.454302
27353.209407,-5625.565159,6217.729913,-75690.235202
27353.211951,-1332.370696,8586.388927,-75230.577904
27353.214494,6661.853478,5329.482782,-76609.549800
27353.217037,11695.253884,8142.265362,-75383.797003
27353.219581,-4589.276840,3256.906145,-74464.482406
27353.222124,-11547.212695,6069.688724,-75383.797003
27353.224667,-7994.224174,5625.565159,-76303.111601
27353.227210,3256.906145,8438.347739,-74924.139704
27353.229754,15248.242405,7846.182985,-76303.111601
27353.232297,19097.313304,3552.988522,-74924.139704
27353.234840,-148.041188,7402.059420,-72319.415011
27353.237384,1184.329507,4885.359217,-75383.797003
27353.239927,-1924.535449,8290.306550,-76609.549800
27353.242470,4737.318029,6365.771101,-75077.358804
27353.245014,20429.683999,5181.441594,-76303.111601
27353.247557,2220.617826,10214.842000,-73698.386908
27353.250100,6217.729913,2516.700203,-75843.454302
27353.252644,2516.700203,5921.647536,-73851.606007
27353.255187,-7105.977043,7994.224174,-75537.016103
27353.257730,1184.329507,7402.059420,-76149.892501
27353.260274,9030.512492,9030.512492,-75383.797003
27353.262817,12583.501014,5181.441594,-75690.235202
27353.265360,3552.988522,4293.194464,-75077.358804
27353.267904,11547.212695,5625.565159,-74770.920605
27353.270447,-7550.100608,6513.812290,-76303.111601
27353.272990,444.123565,7105.977043,-75996.673402
27353.275534,10807.006753,7994.224174,-75690.235202
27353.278077,5921.647536,7254.018232,-75537.016103
27353.280620,18061.024985,6365.771101,-75077.358804
27353.283164,-2220.617826,1628.453072,-75537.016103
27353.285707,10807.006753,6069.688724,-74004.825107
27353.288250,740.205942,8438.347739,-75996.673402
27353.290794,4885.359217,6217.729913,-75843.454302
27353.293337,-1332.370696,9622.677246,-74770.920605
27353.295880,12879.583391,6957.935855,-76149.892501
27353.298424,1332.370696,4589.276840,-75077.358804
27353.300967,6957.935855,4441.235652,-75690.235202
27353.303510,13767.830521,7846.182985,-74004.825107
27353.306054,2960.823768,7698.141797,-75383.797003
27353.308597,2368.659014,5477.523971,-75690.235202
27353.311152,296.082377,9770.718434,-74770.920605
27353.313707,296.082377,3701.029710,-76149.892501
27353.316262,16580.613101,3701.029710,-75383.797003
27353.318817,-4145.153275,6957.935855,-73545.167808
27353.321372,-13027.624579,7254.018232,-76456.330700
27353.323926,-2664.741391,7402.059420,-76915.987999
27353.326481,-10214.842000,6069.688724,-74924.139704
27353.329036,16728.654289,2220.617826,-75996.673402
27353.331591,5773.606348,10214.842000,-74464.482406
27353.334146,-2368.659014,3701.029710,-75690.235202
27353.336701,0.000000,11991.336260,-74158.044206
27353.339256,-14063.912898,4293.194464,-77682.083497
27353.341811,-14804.118840,5477.523971,-75537.016103
27353.344366,9178.553681,7846.182985,-74158.044206
27353.346921,2812.782580,9474.636058,-75077.358804
27353.349476,9030.512492,3404.947333,-77069.207099
27353.352031,-3997.112087,9178.553681,-72625.853210
27353.354586,-9178.553681,4885.359217,-75843.454302
27353.357141,-15840.407159,5921.647536,-76149.892501
27353.359696,9030.512492,6957.935855,-75230.577904
27353.362251,-148.041188,10658.965565,-73085.510509
27353.364806,10362.883188,3256.906145,-75996.673402
27353.367361,296.082377,8290.306550,-74311.263306
27353.369915,-1184.329507,4145.153275,-76609.549800
27353.372470,-8290.306550,7105.977043,-73851.606007
27353.375025,-2812.782580,4737.318029,-75077.358804
27353.377580,1924.535449,10066.800811,-74924.139704
27353.380135,7698.141797,3997.112087,-76303.111601
27353.382690,1332.370696,7550.100608,-73238.729609
27353.385245,-5329.482782,2516.700203,-74924.139704
27353.387800,-6365.771101,7105.977043,-74770.920605
27353.390355,-13471.748144,5033.400406,-77222.426198
27353.392910,2960.823768,10658.965565,-75077.358804
27353.395465,14656.077652,7550.100608,-76609.549800
27353.398020,3997.112087,6069.688724,-75383.797003
27353.400575,-888.247130,1776.494261,-73545.167808
27353.403130,-7698.141797,6661.853478,-74464.482406
27353.405685,-16728.654289,5181.441594,-77222.426198
27353.408240,9474.636058,9326.594869,-75690.235202
27353.410795,2368.659014,5477.523971,-74770.920605
27353.413271,30348.443622,4589.276840,-74158.044206
27353.415748,888.247130,7402.059420,-72319.415011
27353.418224,-11695.253884,2072.576638,-76609.549800
27353.420701,8586.388927,6661.853478,-74924.139704
27353.423177,-5329.482782,10214.842000,-74311.263306
27353.425654,21317.931130,3849.070898,-76609.549800
27353.428130,740.205942,10066.800811,-74158.044206
27353.430607,10807.006753,1184.329507,-76149.892501
27353.433083,-2812.782580,5921.647536,-73391.948708
27353.435560,-6513.812290,7105.977043,-75843.454302
27353.438036,-2516.700203,9326.594869,-76456.330700
27353.440513,17172.777854,6957.935855,-77222.426198
27353.442989,20281.642811,9326.594869,-75383.797003
27353.445466,1332.370696,1924.535449,-74770.920605
27353.447942,-2220.617826,5921.647536,-73698.386908
27353.450419,888.247130,3404.947333,-76456.330700
27353.452895,5033.400406,10955.047942,-74924.139704
27353.455372,-1628.453072,7254.018232,-75996.673402
27353.457848,20133.601622,7402.059420,-75383.797003
27353.460325,9178.553681,7550.100608,-74770.920605
27353.462801,-2960.823768,2368.659014,-74311.263306
27353.465278,1332.370696,4589.276840,-74311.263306
27353.467754,-444.123565,7402.059420,-74924.139704
27353.470231,888.247130,7994.224174,-77069.207099
27353.472707,7254.018232,7402.059420,-75230.577904
27353.475184,8734.430116,8882.471304,-73545.167808
27353.477660,10658.965565,3256.906145,-76456.330700
27353.480137,11103.089130,6069.688724,-74464.482406
27353.482613,1184.329507,4293.194464,-74617.701505
27353.485090,-1924.535449,7698.141797,-75077.358804
27353.487566,-1184.329507,8734.430116,-77375.645298
27353.490043,3849.070898,4145.153275,-76303.111601
27353.492519,21465.972318,4441.235652,-73238.729609
27353.494996,-14656.077652,6513.812290,-73851.606007
27353.497472,-148.041188,6069.688724,-78448.178995
27353.499949,-5773.606348,7105.977043,-75230.577904
27353.502426,-10362.883188,6069.688724,-75383.797003
27353.504902,13767.830521,2812.782580,-76456.330700
27353.507379,10214.842000,7994.224174,-75383.797003
27353.509855,-10807.006753,4441.235652,-74464.482406
27353.512365,2368.659014,6809.894666,-76149.892501
27353.514874,-15248.242405,7402.059420,-74924.139704
27353.517384,-16284.530724,3108.864956,-75537.016103
27353.519894,14063.912898,7846.182985,-74617.701505
27353.522403,888.247130,10362.883188,-74311.263306
27353.524913,10362.883188,1776.494261,-77375.645298
27353.527423,-7105.977043,5625.565159,-73545.167808
27353.529932,-6809.894666,6365.771101,-75537.016103
27353.532442,-12435.459826,5625.565159,-76609.549800
27353.534952,7698.141797,9326.594869,-74158.044206
27353.537461,2516.700203,7254.018232,-74311.263306
27353.539971,10214.842000,4293.194464,-75996.673402
27353.542481,-1332.370696,7254.018232,-73851.606007
27353.544990,-11103.089130,4737.318029,-75230.577904
27353.547500,-14952.160028,5921.647536,-75230.577904
27353.550010,3849.070898,9326.594869,-75383.797003
27353.552519,1332.370696,8142.265362,-74770.920605
27353.555029,9918.759623,3701.029710,-76149.892501
27353.557539,-8882.471304,6217.729913,-73085.510509
27353.560048,-5181.441594,3256.906145,-75537.016103
27353.562558,-13027.624579,6661.853478,-74004.825107
27353.565068,-4589.276840,8142.265362,-76149.892501
27353.567577,22206.178260,9474.636058,-76303.111601
27353.570087,-1036.288319,592.164754,-76149.892501
27353.572597,740.205942,7254.018232,-72625.853210
27353.575106,-16876.695478,1036.288319,-77069.207099
27353.577616,-6661.853478,8290.306550,-75690.235202
27353.580126,2072.576638,11399.171507,-75230.577904
27353.582635,3849.070898,5033.400406,-75383.797003
27353.585145,30496.484810,5921.647536,-74464.482406
27353.587655,2812.782580,6513.812290,-72932.291410
27353.590164,444.123565,296.082377,-77528.864398
27353.592674,1776.494261,8586.388927,-74311.263306
27353.595184,-1480.411884,8734.430116,-76149.892501
27353.597693,24574.837274,6957.935855,-77222.426198
27353.600203,-148.041188,9030.512492,-74311.263306
27353.602713,7994.224174,888.247130,-75690.235202
27353.605222,3108.864956,6365.771101,-72472.634111
27353.607732,-3552.988522,5921.647536,-76149.892501
27353.610242,5033.400406,7846.182985,-77682.083497
27353.612774,22354.219448,11399.171507,-75537.016103
27353.615306,9178.553681,5921.647536,-75383.797003
27353.617838,2368.659014,3701.029710,-75077.358804
27353.620371,-3552.988522,2812.782580,-74004.825107
27353.622903,12731.542202,6217.729913,-75383.797003
27353.625435,-7105.977043,10066.800811,-75383.797003
27353.627967,9918.759623,7698.141797,-76915.987999
27353.630500,16432.571912,11103.089130,-74770.920605
27353.633032,-592.164754,740.205942,-76149.892501
27353.635564,3552.988522,5477.523971,-72932.291410
27353.638096,148.041188,4737.318029,-74617.701505
27353.640629,3997.112087,8290.306550,-76762.768900
27353.643161,1332.370696,7105.977043,-76303.111601
27353.645693,11547.212695,9030.512492,-75077.358804
27353.648225,17172.777854,7254.018232,-74464.482406
27353.650758,2368.659014,2516.700203,-74464.482406
27353.653290,3256.906145,4441.235652,-73391.948708
27353.655822,-740.205942,9474.636058,-75383.797003
27353.658354,-5921.647536,9326.594869,-76762.768900
27353.660887,11399.171507,4737.318029,-75537.016103
27353.663419,8290.306550,6809.894666,-72319.415011
27353.665951,-17764.942608,4737.318029,-74311.263306
27353.668483,2960.823768,5921.647536,-75996.673402
27353.671016,-20577.725188,10066.800811,-72779.072310
27353.673548,4589.276840,4737.318029,-75230.577904
27353.676080,13175.665768,10362.883188,-74924.139704
27353.678612,6513.812290,5477.523971,-76149.892501
27353.681145,-9474.636058,6365.771101,-74158.044206
27353.683677,0.000000,3701.029710,-75537.016103
27353.686209,-18949.272115,6513.812290,-75077.358804
27353.688741,-5181.441594,3108.864956,-76456.330700
27353.691274,7994.224174,13323.706956,-74464.482406
27353.693806,3256.906145,4885.359217,-77682.083497
27353.696338,1628.453072,6365.771101,-74924.139704
27353.698871,740.205942,5181.441594,-74158.044206
27353.701403,-17468.860231,5921.647536,-75383.797003
27353.703935,-740.205942,6661.853478,-76456.330700
27353.706467,6513.812290,9622.677246,-74770.920605
27353.709000,12879.583391,6513.812290,-76609.549800
27353.711532,740.205942,7550.100608,-75077.358804
27353.714081,-3256.906145,2960.823768,-75537.016103
27353.716630,-15544.324782,5773.606348,-73391.948708
27353.719178,-592.164754,6365.771101,-75996.673402
27353.721727,2220.617826,9770.718434,-76303.111601
27353.724276,3997.112087,6069.688724,-76915.987999
27353.726825,3108.864956,6809.894666,-73698.386908
27353.729374,-9178.553681,3701.029710,-74617.701505
27353.731923,-11103.089130,6365.771101,-75383.797003
27353.734472,1628.453072,7105.977043,-75690.235202
27353.737021,16432.571912,11399.171507,-75690.235202
27353.739570,740.205942,3108.864956,-76303.111601
27353.742118,-12435.459826,4737.318029,-75077.358804
27353.744667,-3108.864956,2368.659014,-74770.920605
27353.747216,-1480.411884,7550.100608,-75077.358804
27353.749765,10510.924376,10066.800811,-75537.016103
27353.752314,13175.665768,5181.441594,-74158.044206
27353.754863,10362.883188,7550.100608,-72625.853210
27353.757412,1480.411884,4737.318029,-74004.825107
27353.759961,296.082377,4145.153275,-75843.454302
27353.762510,-4145.153275,8142.265362,-74617.701505
27353.765058,11399.171507,4737.318029,-76915.987999
27353.767607,17616.901420,12139.377449,-74770.920605
27353.770156,1924.535449,3701.029710,-76915.987999
27353.772705,3256.906145,2960.823768,-74158.044206
27353.775254,0.000000,6809.894666,-74311.263306
27353.777803,-296.082377,6069.688724,-77069.207099
27353.780352,14656.077652,8734.430116,-75996.673402
27353.782901,9178.553681,9474.636058,-74617.701505
27353.785449,9474.636058,4145.153275,-75996.673402
27353.787998,-4737.318029,2368.659014,-74004.825107
27353.790547,4885.359217,4737.318029,-74158.044206
27353.793096,-3701.029710,7402.059420,-74770.920605
27353.795645,11695.253884,4441.235652,-78141.740796
27353.798194,5181.441594,11695.253884,-73085.510509
27353.800743,11103.089130,5329.482782,-75383.797003
27353.803292,-4589.276840,3849.070898,-74464.482406
27353.805841,6957.935855,2960.823768,-74311.263306
27353.808389,740.205942,6957.935855,-74924.139704
27353.810938,3256.906145,9326.594869,-75843.454302
27353.813487,11547.212695,6365.771101,-77069.207099
27353.816049,16580.613101,9178.553681,-74464.482406
27353.818611,4145.153275,3849.070898,-74617.701505
27353.821173,-7550.100608,1332.370696,-75383.797003
27353.823735,8142.265362,9622.677246,-74158.044206
27353.826297,-6365.771101,8142.265362,-75537.016103
27353.828859,15840.407159,4737.318029,-77069.207099
27353.831421,-3256.906145,9178.553681,-73545.167808
27353.833983,-14804.118840,5625.565159,-76456.330700
27353.836545,1924.535449,5477.523971,-74158.044206
27353.839107,-15248.242405,6809.894666,-73698.386908
27353.841669,14359.995275,3997.112087,-76609.549800
27353.844231,8586.388927,13915.871710,-74770.920605
27353.846793,-444.123565,3997.112087,-76915.987999
27353.849355,-888.247130,10807.006753,-74004.825107
27353.851916,-15692.365970,3108.864956,-74617.701505
27353.854478,-14508.036463,4441.235652,-74770.920605
27353.857040,5033.400406,7402.059420,-74311.263306
27353.859602,13175.665768,10214.842000,-75230.577904
27353.862164,1332.370696,4293.194464,-76915.987999
27353.864726,-444.123565,9030.512492,-73238.729609
27353.867288,4885.359217,4293.194464,-75077.358804
27353.869850,-32272.979071,6365.771101,-74004.825107
27353.872412,33901.432144,1776.494261,-76456.330700
27353.874974,-27387.619854,16136.489536,-70787.224015
27353.877536,21762.054695,2368.659014,-78294.959896
27353.880098,-11399.171507,8142.265362,-73851.606007
27353.882660,-888.247130,3552.988522,-76762.768900
27353.885222,-1628.453072,6809.894666,-74617.701505
27353.887784,-10955.047942,8882.471304,-75230.577904
27353.890346,8290.306550,6809.894666,-77069.207099
27353.892908,740.205942,9178.553681,-76609.549800
27353.895470,-1628.453072,4737.318029,-74770.920605
27353.898032,-12879.583391,5477.523971,-75230.577904
27353.900594,8882.471304,8290.306550,-75690.235202
27353.903156,2220.617826,6661.853478,-75690.235202
27353.905717,2368.659014,7846.182985,-73851.606007
27353.908279,-22354.219448,3997.112087,-75843.454302
27353.910841,10955.047942,3997.112087,-75230.577904
27353.913403,-2516.700203,8438.347739,-73698.386908
27353.915965,10066.800811,7550.100608,-74770.920605
27353.918535,20725.766376,6809.894666,-74924.139704
27353.921105,-2368.659014,5921.647536,-74158.044206
27353.923674,6365.771101,5921.647536,-77375.645298
27353.926244,-2072.576638,7402.059420,-75843.454302
27353.928814,2072.576638,5773.606348,-74617.701505
27353.931383,18209.066173,6661.853478,-75690.235202
27353.933953,3849.070898,9770.718434,-74464.482406
27353.936523,3701.029710,2368.659014,-77069.207099
27353.939092,10066.800811,6513.812290,-73085.510509
27353.941662,-2072.576638,6365.771101,-75077.358804
27353.944232,0.000000,6365.771101,-74924.139704
27353.946801,17616.901420,6809.894666,-75383.797003
27353.949371,-2664.741391,7994.224174,-73545.167808
27353.951941,15544.324782,2368.659014,-75843.454302
27353.954510,-3552.988522,5921.647536,-73851.606007
27353.957080,11547.212695,7402.059420,-74617.701505
27353.959650,-6661.853478,12731.542202,-72932.291410
27353.962220,15544.324782,5625.565159,-78448.178995
27353.964789,4145.153275,10066.800811,-74617.701505
27353.967359,6661.853478,3849.070898,-75996.673402
27353.969929,1776.494261,5773.606348,-73391.948708
27353.972498,1776.494261,4293.194464,-75077.358804
27353.975068,4293.194464,7994.224174,-74770.920605
27353.977638,7698.141797,5329.482782,-75230.577904
27353.980207,17616.901420,7846.182985,-74924.139704
27353.982777,2220.617826,5773.606348,-75383.797003
27353.985347,-9474.636058,2664.741391,-75077.358804
27353.987916,9178.553681,8734.430116,-74464.482406
27353.990486,-5033.400406,4737.318029,-75690.235202
27353.993056,15988.448347,5773.606348,-74770.920605
27353.995625,-11251.130318,9326.594869,-73545.167808
27353.998195,-5329.482782,5329.482782,-78754.617194
27354.000765,-9178.553681,8290.306550,-74617.701505
27354.003334,-9770.718434,3108.864956,-74464.482406
27354.005904,17024.736666,3404.947333,-76149.892501
27354.008474,2220.617826,11991.336260,-74311.263306
27354.011043,-4145.153275,2664.741391,-77222.426198
27354.013613,1036.288319,10214.842000,-74617.701505
27354.016183,-23390.507767,4441.235652,-76149.892501
27354.018752,-2664.741391,2812.782580,-74617.701505
27354.021326,2516.700203,7402.059420,-73391.948708
27354.023902,7254.018232,9918.759623,-75843.454302
27354.026477,148.041188,5625.565159,-76149.892501
27354.029052,5033.400406,7550.100608,-73238.729609
27354.031628,-19541.436869,4737.318029,-75383.797003
27354.034203,-2960.823768,6217.729913,-75843.454302
27354.036779,1332.370696,4145.153275,-76149.892501
27354.039354,8290.306550,10066.800811,-75230.577904
27354.041930,7550.100608,4885.359217,-77835.302597
27354.044505,-9770.718434,6661.853478,-75690.235202
27354.047080,-1776.494261,4589.276840,-75230.577904
27354.049656,-15396.283594,7402.059420,-74770.920605
27354.052231,4885.359217,5181.441594,-76456.330700
27354.054807,-4441.235652,9326.594869,-76149.892501
27354.057382,6513.812290,6069.688724,-75230.577904
27354.059957,-4441.235652,8290.306550,-74464.482406
27354.062533,1184.329507,4441.235652,-75537.016103
27354.065108,2812.782580,6957.935855,-74158.044206
27354.067684,-3701.029710,6957.935855,-73391.948708
27354.070259,-10362.883188,5477.523971,-75843.454302
27354.072834,-2960.823768,9474.636058,-74770.920605
27354.075410,9622.677246,5329.482782,-76303.111601
27354.077985,9030.512492,8586.388927,-75077.358804
27354.080561,19393.395680,2960.823768,-74311.263306
27354.083136,-2516.700203,5773.606348,-73391.948708
27354.085712,4737.318029,6513.812290,-77222.426198
27354.088287,-2368.659014,7846.182985,-75690.235202
27354.090862,6069.688724,6661.853478,-74770.920605
27354.093438,20133.601622,7550.100608,-74924.139704
27354.096013,4293.194464,5921.647536,-74770.920605
27354.098589,7698.141797,3552.988522,-74924.139704
27354.101164,-1628.453072,5477.523971,-74311.263306
27354.103745,2960.823768,6069.688724,-76609.549800
27354.106326,4589.276840,8142.265362,-74924.139704
27354.108907,9474.636058,6513.812290,-75690.235202
27354.111488,13175.665768,9030.512492,-74311.263306
27354.114069,-2812.782580,2072.576638,-74770.920605
27354.116650,11991.336260,6513.812290,-73085.510509
27354.119231,-7994.224174,8734.430116,-73238.729609
27354.121812,4737.318029,4885.359217,-77222.426198
27354.124393,17172.777854,10658.965565,-74158.044206
27354.126974,7550.100608,6661.853478,-74617.701505
27354.129555,6661.853478,4737.318029,-75230.577904
27354.132136,-1924.535449,1924.535449,-74464.482406
27354.134717,6661.853478,8734.430116,-74004.825107
27354.137298,4885.359217,5921.647536,-75843.454302
27354.139879,11991.336260,9178.553681,-75843.454302
27354.142460,15840.407159,7994.224174,-75077.358804
27354.145041,-9178.553681,1776.494261,-75383.797003
27354.147622,7846.182985,7402.059420,-75690.235202
27354.150203,-3849.070898,6365.771101,-74617.701505
27354.152784,14359.995275,4293.194464,-75996.673402
27354.155365,-7105.977043,8882.471304,-74464.482406
27354.157946,-5921.647536,8142.265362,-77528.864398
27354.160527,-5477.523971,6365.771101,-76456.330700
27354.163108,-10362.883188,5181.441594,-74464.482406
27354.165689,12435.459826,2516.700203,-75383.797003
27354.168270,4885.359217,12139.377449,-73851.606007
27354.170851,-2072.576638,3997.112087,-76456.330700
27354.173432,-1480.411884,11547.212695,-73391.948708
27354.176013,-19245.354492,3701.029710,-75690.235202
27354.178594,-8586.388927,4441.235652,-74311.263306
27354.181175,3849.070898,6069.688724,-73545.167808
27354.183756,15248.242405,7994.224174,-75077.358804
27354.186337,3849.070898,7846.182985,-76303.111601
27354.188918,1628.453072,5477.523971,-75230.577904
27354.191499,-13175.665768,6069.688724,-76609.549800
27354.194080,-2516.700203,3849.070898,-75383.797003
27354.196661,-1332.370696,5921.647536,-76303.111601
27354.199242,13471.748144,8290.306550,-75537.016103
27354.201823,740.205942,6809.894666,-76149.892501
27354.204404,-2072.576638,7846.182985,-74004.825107
27354.206986,-10955.047942,3849.070898,-75537.016103
27354.209569,-9474.636058,6217.729913,-74464.482406
27354.212152,3849.070898,6513.812290,-75230.577904
27354.214735,-5033.400406,7550.100608,-76149.892501
27354.217318,5773.606348,9622.677246,-74770.920605
27354.219900,-2516.700203,5921.647536,-76303.111601
27354.222483,1480.411884,6365.771101,-75537.016103
27354.225066,2960.823768,3701.029710,-74770.920605
27354.227649,-15988.448347,8142.265362,-74158.044206
27354.230232,-3404.947333,5625.565159,-76149.892501
27354.232815,5033.400406,7698.141797,-74924.139704
27354.235397,16432.571912,10362.883188,-74311.263306
27354.237980,15544.324782,2960.823768,-74311.263306
27354.240563,5625.565159,7254.018232,-72779.072310
27354.243146,-1776.494261,4885.359217,-75537.016103
27354.245729,-2664.741391,6957.935855,-77375.645298
27354.248311,5181.441594,8438.347739,-75077.358804
27354.250894,15100.201217,6809.894666,-74770.920605
27354.253477,9326.594869,6513.812290,-75383.797003
27354.256060,9030.512492,5477.523971,-74617.701505
27354.258643,-4441.235652,3404.947333,-74464.482406
27354.261225,3256.906145,6957.935855,-74770.920605
27354.263808,-7994.224174,8734.430116,-75230.577904
27354.266391,18357.107362,6069.688724,-76149.892501
27354.268974,2516.700203,8586.388927,-75077.358804
27354.271557,9474.636058,10214.842000,-73545.167808
27354.274140,-10955.047942,296.082377,-75383.797003
27354.276722,13767.830521,5181.441594,-75996.673402
27354.279305,-1924.535449,9474.636058,-74924.139704
27354.281888,-3256.906145,4885.359217,-76609.549800
27354.284471,16580.613101,10955.047942,-74311.263306
27354.287054,5033.400406,4737.318029,-74617.701505
27354.289636,3552.988522,4145.153275,-75843.454302
27354.292219,8734.430116,5921.647536,-74004.825107
27354.294802,6217.729913,7402.059420,-75843.454302
27354.297385,11695.253884,6069.688724,-76149.892501
27354.299968,8734.430116,9474.636058,-75077.358804
27354.302550,-2812.782580,6217.729913,-74617.701505
27354.305133,4589.276840,6217.729913,-75843.454302
27354.307716,2812.782580,5477.523971,-75230.577904
27354.310300,9474.636058,3256.906145,-74770.920605
27354.312885,-14211.954086,10362.883188,-73391.948708
27354.315469,-2812.782580,7698.141797,-78141.740796
27354.318053,-14211.954086,8586.388927,-74770.920605
27354.320637,1184.329507,2960.823768,-74617.701505
27354.323222,14952.160028,5921.647536,-74158.044206
27354.325806,1924.535449,7550.100608,-76303.111601
27354.328390,-2072.576638,5181.441594,-76915.987999
27354.330975,-148.041188,10362.883188,-74770.920605
27354.333559,-24130.713709,4145.153275,-77069.207099
27354.336143,3701.029710,2516.700203,-74924.139704
27354.338727,3404.947333,8586.388927,-74158.044206
27354.341312,12879.583391,5477.523971,-77528.864398
27354.343896,-148.041188,10066.800811,-74464.482406
27354.346480,-6809.894666,4885.359217,-74617.701505
27354.349064,-10807.006753,5477.523971,-74924.139704
27354.351649,-8734.430116,4293.194464,-75843.454302
27354.354233,-1924.535449,8586.388927,-75383.797003
27354.356817,12731.542202,5921.647536,-76303.111601
27354.359401,-1332.370696,6809.894666,-74617.701505
27354.361986,888.247130,5921.647536,-75996.673402
27354.364570,-22946.384202,5033.400406,-74464.482406
27354.367154,-1036.288319,6661.853478,-74617.701505
27354.369738,-9622.677246,5921.647536,-75383.797003
27354.372323,10510.924376,8438.347739,-75537.016103
27354.374907,8290.306550,7254.018232,-74311.263306
27354.377491,-4441.235652,5921.647536,-74924.139704
27354.380076,3552.988522,3108.864956,-76303.111601
27354.382660,-19985.560434,7994.224174,-74158.044206
27354.385244,-11399.171507,5181.441594,-75843.454302
27354.387828,10214.842000,7846.182985,-75230.577904
27354.390413,10214.842000,8734.430116,-74311.263306
27354.392997,24278.754898,2220.617826,-75383.797003
27354.395581,-2664.741391,7846.182985,-72166.195912
27354.398165,-1924.535449,4885.359217,-76456.330700
27354.400750,-740.205942,7105.977043,-77222.426198
27354.403334,1628.453072,9030.512492,-75230.577904
27354.405918,24130.713709,4589.276840,-75690.235202
27354.408502,7698.141797,7846.182985,-74004.825107
27354.411087,16136.489536,4293.194464,-75537.016103
27354.413672,-6513.812290,5625.565159,-75077.358804
27354.416258,-1332.370696,8734.430116,-74464.482406
27354.418843,-9770.718434,7105.977043,-75230.577904
27354.421429,28275.866984,8142.265362,-74924.139704
27354.424014,-5773.606348,6069.688724,-73238.729609
27354.426599,11547.212695,1776.494261,-74770.920605
27354.429185,6809.894666,5921.647536,-72932.291410
27354.431770,-444.123565,7698.141797,-74924.139704
27354.434356,-5921.647536,5773.606348,-76303.111601
27354.436941,12731.542202,9178.553681,-75537.016103
27354.439527,13323.706956,7402.059420,-74617.701505
27354.442112,3404.947333,4145.153275,-73545.167808
27354.444698,3256.906145,3108.864956,-73085.510509
27354.447283,12139.377449,6957.935855,-74464.482406
27354.449868,444.123565,7254.018232,-76762.768900
27354.452454,7550.100608,8734.430116,-76149.892501
27354.455039,5625.565159,7550.100608,-74924.139704
27354.457625,-740.205942,8142.265362,-75230.577904
27354.460210,13027.624579,5181.441594,-74617.701505
27354.462796,6809.894666,4589.276840,-74770.920605
27354.465381,-18061.024985,4737.318029,-74004.825107
27354.467967,-2072.576638,11843.295072,-75230.577904
27354.470552,-12583.501014,8586.388927,-76456.330700
27354.473137,-13027.624579,5477.523971,-74924.139704
27354.475723,21021.848753,2664.741391,-75383.797003
27354.478308,-592.164754,7994.224174,-73851.606007
27354.480894,148.041188,2516.700203,-76456.330700
27354.483479,888.247130,11695.253884,-74311.263306
27354.486065,-23094.425390,5329.482782,-77069.207099
27354.488650,-3997.112087,4441.235652,-75383.797003
27354.491236,8290.306550,8142.265362,-72472.634111
27354.493821,9030.512492,6809.894666,-74004.825107
27354.496406,2960.823768,2960.823768,-76456.330700
27354.498992,-1480.411884,8734.430116,-73391.948708
27354.501577,-14804.118840,4441.235652,-76149.892501
27354.504163,-4293.194464,8438.347739,-75690.235202
27354.506748,-3849.070898,7550.100608,-74464.482406
27354.509334,6957.935855,7550.100608,-76456.330700
27354.511919,-4441.235652,5181.441594,-75383.797003
27354.514504,-888.247130,5329.482782,-74464.482406
27354.517089,-11843.295072,7402.059420,-74004.825107
27354.519674,-14359.995275,4441.235652,-75690.235202
27354.522259,-888.247130,7105.977043,-75077.358804
27354.524844,9622.677246,9030.512492,-76456.330700
27354.527428,14508.036463,7698.141797,-75383.797003
27354.530013,-2960.823768,3108.864956,-74311.263306
27354.532598,-6217.729913,5181.441594,-76303.111601
27354.535183,-22650.301825,5329.482782,-75996.673402
27354.537768,-2220.617826,6069.688724,-76609.549800
27354.540352,19837.519246,12879.583391,-75690.235202
27354.542937,9918.759623,3552.988522,-76915.987999
27354.545522,40711.326810,3404.947333,-75537.016103
27354.548107,-5773.606348,4589.276840,-73698.386908
27354.550692,888.247130,5625.565159,-77835.302597
27354.553276,-8438.347739,9474.636058,-74617.701505
27354.555861,1332.370696,6957.935855,-75843.454302
27354.558446,23242.466579,6661.853478,-75077.358804
27354.561031,16284.530724,7105.977043,-73391.948708
27354.563616,3849.070898,2368.659014,-74770.920605
27354.566200,-3849.070898,3849.070898,-74464.482406
27354.568785,-1628.453072,8882.471304,-74311.263306
27354.571370,-6365.771101,6365.771101,-77222.426198
27354.573955,18357.107362,11843.295072,-74770.920605
27354.576540,4441.235652,1776.494261,-76149.892501
27354.579124,5625.565159,3256.906145,-73698.386908
27354.581709,5329.482782,7550.100608,-74464.482406
27354.584294,740.205942,5477.523971,-76915.987999
27354.586879,-1776.494261,10510.924376,-74158.044206
27354.589464,11251.130318,7994.224174,-75230.577904
27354.592048,20281.642811,8882.471304,-74464.482406
27354.594633,4145.153275,1924.535449,-74617.701505
27354.597218,10658.965565,5921.647536,-72472.634111
27354.599803,3997.112087,4737.318029,-75230.577904
27354.602388,2516.700203,7846.182985,-77682.083497
27354.604972,-592.164754,9474.636058,-75843.454302
27354.607557,4441.235652,8142.265362,-74770.920605
27354.610142,11251.130318,4737.318029,-75383.797003
27354.612727,13767.830521,1480.411884,-74158.044206
27354.615312,-19689.478057,6513.812290,-73391.948708
27354.617896,-1776.494261,7698.141797,-77222.426198
27354.620481,-18801.230927,11695.253884,-76149.892501
27354.623065,-4145.153275,4293.194464,-75230.577904
27354.625650,22206.178260,6957.935855,-74158.044206
27354.628234,3256.906145,6069.688724,-75230.577904
27354.630819,1924.535449,1184.329507,-75537.016103
27354.633403,148.041188,9770.718434,-74004.825107
27354.635987,-25018.960840,7254.018232,-77528.864398
27354.638572,-2072.576638,4293.194464,-76149.892501
27354.641156,6661.853478,10658.965565,-73545.167808
27354.643741,6365.771101,4589.276840,-75383.797003
27354.646325,12287.418637,3108.864956,-75077.358804
27354.648910,-16580.613101,7105.977043,-72932.291410
27354.651494,15988.448347,6069.688724,-75690.235202
27354.654079,-43079.985824,10214.842000,-74004.825107
27354.656663,27979.784608,4145.153275,-77375.645298
27354.659247,-8438.347739,11695.253884,-73085.510509
27354.661832,4145.153275,-888.247130,-76456.330700
27354.664416,1480.411884,11103.089130,-73698.386908
27354.667001,-20281.642811,3404.947333,-75996.673402
27354.669585,-5329.482782,7846.182985,-75690.235202
27354.672170,-8142.265362,9178.553681,-75843.454302
27354.674754,21465.972318,9770.718434,-75996.673402
27354.677339,-7994.224174,1924.535449,-74924.139704
27354.679923,9326.594869,4737.318029,-73545.167808
27354.682507,-14508.036463,6365.771101,-76609.549800
27354.685092,-15100.201217,4293.194464,-76915.987999
27354.687676,16580.613101,8438.347739,-75690.235202
27354.690261,-2516.700203,7254.018232,-75690.235202
27354.692845,32569.061448,2960.823768,-75383.797003
27354.695430,1924.535449,10955.047942,-71246.881314
27354.698014,-9918.759623,1480.411884,-76915.987999
27354.700599,7105.977043,6957.935855,-75537.016103
27354.703183,-592.164754,13027.624579,-74617.701505
27354.705767,16876.695478,5181.441594,-76303.111601
27354.708352,16136.489536,7994.224174,-73698.386908
27354.710936,20873.807564,7254.018232,-72779.072310
27354.713521,-14508.036463,1480.411884,-75230.577904
27354.716105,5921.647536,6069.688724,-75383.797003
27354.718690,-15544.324782,6217.729913,-78141.740796
27354.721274,21614.013506,9474.636058,-77835.302597
27354.723857,17912.983796,9326.594869,-75383.797003
27354.726439,-3404.947333,444.123565,-74617.701505
27354.729022,17616.901420,5181.441594,-74770.920605
27354.731605,-3256.906145,6365.771101,-74924.139704
27354.734188,3552.988522,5329.482782,-77682.083497
27354.736770,-148.041188,10955.047942,-74158.044206
27354.739353,15248.242405,5773.606348,-77835.302597
27354.741936,9326.594869,4293.194464,-76303.111601
27354.744518,8882.471304,3404.947333,-73238.729609
27354.747101,6661.853478,4145.153275,-72779.072310
27354.749684,-444.123565,5477.523971,-77835.302597
27354.752266,-2960.823768,12879.583391,-76456.330700
27354.754849,296.082377,5625.565159,-76762.768900
27354.757432,22354.219448,8882.471304,-75077.358804
27354.760015,-3997.112087,-444.123565,-74770.920605
27354.762597,-2812.782580,6661.853478,-75077.358804
27354.765180,-7402.059420,6069.688724,-77375.645298
27354.767763,-14359.995275,9030.512492,-76456.330700
27354.770345,2072.576638,5773.606348,-75690.235202
27354.772928,21910.095883,9178.553681,-75230.577904
27354.775511,1332.370696,5921.647536,-74924.139704
27354.778093,296.082377,2220.617826,-74158.044206
27354.780676,-7105.977043,7550.100608,-74770.920605
27354.783259,-21169.889941,6661.853478,-77069.207099
27354.785842,-6809.894666,7550.100608,-75077.358804
27354.788424,14211.954086,9918.759623,-75230.577904
27354.791007,1184.329507,5477.523971,-76303.111601
27354.793590,9326.594869,2220.617826,-75230.577904
27354.796172,1036.288319,7550.100608,-71706.538613
27354.798755,-21465.972318,4885.359217,-75996.673402
27354.801338,2664.741391,6809.894666,-76762.768900
27354.803920,-3701.029710,9178.553681,-74311.263306
27354.806503,13471.748144,6957.935855,-75690.235202
27354.809086,-3404.947333,6069.688724,-75843.454302
27354.811669,-4145.153275,1628.453072,-75843.454302
27354.814251,-12879.583391,8290.306550,-73545.167808
27354.816834,-12139.377449,7846.182985,-76609.549800
27354.819417,9770.718434,7550.100608,-77835.302597
27354.821999,11103.089130,9770.718434,-75843.454302
27354.824582,740.205942,2812.782580,-73851.606007
27354.827164,-14656.077652,4293.194464,-74617.701505
27354.829745,-9326.594869,5181.441594,-75996.673402
27354.832327,8290.306550,5033.400406,-76303.111601
27354.834908,15840.407159,15248.242405,-73698.386908
27354.837490,23242.466579,3404.947333,-75537.016103
27354.840071,16284.530724,9770.718434,-71859.757712
27354.842653,-6217.729913,888.247130,-74004.825107
27354.845234,-3997.112087,5329.482782,-77222.426198
27354.847816,1776.494261,12435.459826,-74158.044206
27354.850398,9178.553681,4441.235652,-76303.111601
27354.852979,17468.860231,9918.759623,-74924.139704
27354.855561,17024.736666,5033.400406,-73851.606007
27354.858142,-7105.977043,4441.235652,-72932.291410
27354.860724,1628.453072,2220.617826,-74770.920605
27354.863305,-17912.983796,9622.677246,-74924.139704
27354.865887,18061.024985,10362.883188,-76762.768900
27354.868468,22206.178260,11695.253884,-73851.606007
27354.871050,-4441.235652,2960.823768,-74158.044206
27354.873631,13767.830521,888.247130,-74158.044206
27354.876213,-4293.194464,6365.771101,-73851.606007
27354.878794,3552.988522,4293.194464,-77528.864398
27354.881376,888.247130,13471.748144,-74004.825107
27354.883958,14952.160028,5921.647536,-76762.768900
27354.886539,19837.519246,6069.688724,-75537.016103
27354.889121,1036.288319,1628.453072,-73698.386908
27354.891702,10658.965565,4441.235652,-73085.510509
27354.894284,-2368.659014,5329.482782,-76609.549800
27354.896865,-3108.864956,11547.212695,-77682.083497
27354.899447,3256.906145,6217.729913,-76609.549800
27354.902028,30348.443622,9622.677246,-74770.920605
27354.904610,-14359.995275,3997.112087,-73698.386908
27354.907191,592.164754,7105.977043,-75077.358804
27354.909773,-22650.301825,7994.224174,-75230.577904
27354.912355,-18653.189738,5625.565159,-75996.673402
27354.914936,13027.624579,6957.935855,-75690.235202
27354.917518,15248.242405,8734.430116,-74617.701505
27354.920099,296.082377,4737.318029,-74464.482406
27354.922681,-3404.947333,4737.318029,-74311.263306
27354.925262,-5921.647536,6365.771101,-75077.358804
27354.927844,-16284.530724,2960.823768,-78141.740796
27354.930423,296.082377,10658.965565,-73851.606007
27354.933003,12287.418637,10066.800811,-74464.482406
27354.935582,2368.659014,3404.947333,-76149.892501
27354.938162,0.000000,6365.771101,-73085.510509
27354.940741,-11103.089130,4885.359217,-75996.673402
27354.943321,-3849.070898,6069.688724,-77835.302597
27354.945900,-4737.318029,9770.718434,-76303.111601
27354.948480,6513.812290,8290.306550,-74158.044206
27354.951059,-1628.453072,6217.729913,-74617.701505
27354.953639,888.247130,3404.947333,-75230.577904
27354.956218,-11103.089130,6069.688724,-74617.701505
27354.958798,-11399.171507,6217.729913,-75996.673402
27354.961377,10362.883188,8438.347739,-76762.768900
27354.963957,4145.153275,9770.718434,-76303.111601
27354.966536,2812.782580,4885.359217,-74004.825107
27354.969116,-19245.354492,1924.535449,-74464.482406
27354.971695,-444.123565,5181.441594,-75690.235202
27354.974275,2960.823768,5921.647536,-77835.302597
27354.976854,13175.665768,11843.295072,-74617.701505
27354.979434,26055.249158,3849.070898,-75537.016103
27354.982013,4293.194464,9474.636058,-72625.853210
27354.984593,-2516.700203,1924.535449,-75690.235202
27354.987172,-2220.617826,4293.194464,-75690.235202
27354.989752,2220.617826,11251.130318,-74004.825107
27354.992331,9178.553681,5477.523971,-76303.111601
27354.994911,20133.601622,10510.924376,-75843.454302
27354.997490,4589.276840,6365.771101,-74464.482406
27355.000070,-11103.089130,3997.112087,-72012.976812
27355.002649,6217.729913,4737.318029,-75077.358804
27355.005229,-6957.935855,6661.853478,-75383.797003
27355.007808,9030.512492,9326.594869,-74617.701505
27355.010388,16136.489536,8586.388927,-74924.139704
27355.012968,2960.823768,4441.235652,-76303.111601
27355.015547,296.082377,6513.812290,-71706.538613
27355.018127,6513.812290,2516.700203,-73391.948708
27355.020706,-1332.370696,10214.842000,-76609.549800
27355.023286,10807.006753,7402.059420,-76303.111601
27355.025865,16136.489536,11251.130318,-74311.263306
27355.028445,12879.583391,2664.741391,-75843.454302
27355.031024,2960.823768,4737.318029,-73545.167808
27355.033600,2220.617826,2368.659014,-74158.044206
27355.036179,-444.123565,9918.759623,-74464.482406
27355.038758,-6365.771101,8882.471304,-76609.549800
27355.041337,19689.478057,9770.718434,-75537.016103
27355.043915,-12879.583391,2220.617826,-74004.825107
27355.046494,-7846.182985,2664.741391,-75996.673402
27355.049073,296.082377,5625.565159,-76149.892501
27355.051652,-18505.148550,9326.594869,-74770.920605
27355.054231,5033.400406,5625.565159,-75996.673402
27355.056809,18505.148550,10214.842000,-75383.797003
27355.059388,5329.482782,7846.182985,-75843.454302
27355.061967,-6069.688724,2368.659014,-73238.729609
27355.064546,-148.041188,4737.318029,-74311.263306
27355.067124,-21465.972318,7254.018232,-75690.235202
27355.069703,-7994.224174,5329.482782,-75383.797003
27355.072282,8586.388927,11547.212695,-74004.825107
27355.074861,8586.388927,6217.729913,-75996.673402
27355.077440,6661.853478,4293.194464,-75383.797003
27355.080018,-4589.276840,4589.276840,-73085.510509
27355.082597,-8882.471304,4885.359217,-76149.892501
27355.085176,-11547.212695,9326.594869,-75690.235202
27355.087755,592.164754,6661.853478,-75537.016103
27355.090334,2072.576638,9178.553681,-75230.577904
27355.092912,444.123565,3552.988522,-76303.111601
27355.095491,-3849.070898,5773.606348,-74924.139704
27355.098070,-10807.006753,4145.153275,-75077.358804
27355.100649,5181.441594,7994.224174,-74311.263306
27355.103228,1924.535449,9622.677246,-75537.016103
27355.105806,-1184.329507,6809.894666,-74770.920605
27355.108385,-9622.677246,2516.700203,-75383.797003
27355.110964,-6661.853478,7402.059420,-73545.167808
27355.113543,6661.853478,5773.606348,-76915.987999
27355.116122,4441.235652,9622.677246,-74311.263306
27355.118700,21465.972318,5033.400406,-75383.797003
27355.121279,6069.688724,10362.883188,-72319.415011
27355.123858,-1924.535449,3701.029710,-75996.673402
27355.126437,1480.411884,6217.729913,-75537.016103
27355.129016,444.123565,8438.347739,-75230.577904
27355.131594,18061.024985,6365.771101,-76149.892501
27355.134173,10066.800811,9326.594869,-75230.577904
27355.136750,9918.759623,4737.318029,-73851.606007
27355.139327,-3404.947333,5477.523971,-73698.386908
27355.141904,-1480.411884,8438.347739,-74617.701505
27355.144480,1036.288319,4589.276840,-77375.645298
27355.147057,10510.924376,9918.759623,-73851.606007
27355.149634,8734.430116,6661.853478,-76609.549800
27355.152211,7402.059420,2812.782580,-77375.645298
27355.154788,888.247130,5329.482782,-74464.482406
27355.157364,9622.677246,4737.318029,-74924.139704
27355.159941,-3108.864956,8438.347739,-75996.673402
27355.162518,12583.501014,4737.318029,-76609.549800
27355.165095,13027.624579,13175.665768,-73085.510509
27355.167672,8882.471304,1480.411884,-76149.892501
27355.170248,-888.247130,4737.318029,-73851.606007
27355.172825,7846.182985,5773.606348,-73545.167808
27355.175402,-8290.306550,8882.471304,-75383.797003
27355.177979,6365.771101,5329.482782,-76609.549800
27355.180556,22798.343014,8734.430116,-74770.920605
27355.183132,-14359.995275,5329.482782,-74004.825107
27355.185709,1480.411884,5921.647536,-77069.207099
27355.188286,-16580.613101,8734.430116,-74311.263306
27355.190863,-15692.365970,4293.194464,-74770.920605
27355.193440,15988.448347,5477.523971,-76149.892501
27355.196016,6957.935855,11399.171507,-75077.358804
27355.198593,2960.823768,3256.906145,-76303.111601
27355.201170,-5921.647536,7846.182985,-73391.948708
27355.203747,-5033.400406,2812.782580,-75996.673402
27355.206323,-15396.283594,6069.688724,-75230.577904
27355.208900,9770.718434,7550.100608,-76456.330700
27355.211477,592.164754,11547.212695,-74311.263306
27355.214054,11103.089130,2960.823768,-77988.521696
27355.216631,-1332.370696,7698.141797,-72319.415011
27355.219207,-6513.812290,3108.864956,-75690.235202
27355.221784,-14359.995275,9178.553681,-74617.701505
27355.224361,-1628.453072,5773.606348,-77835.302597
27355.226938,5329.482782,10214.842000,-74924.139704
27355.229515,2368.659014,4145.153275,-76456.330700
27355.232091,-1924.535449,6957.935855,-74617.701505
27355.234668,-8734.430116,4737.318029,-74924.139704
27355.237245,6217.729913,7254.018232,-73698.386908
27355.239820,-5477.523971,7846.182985,-74924.139704
27355.242395,5033.400406,7698.141797,-75077.358804
27355.244969,-11991.336260,5921.647536,-75690.235202
27355.247544,-3701.029710,5921.647536,-73698.386908
27355.250119,9918.759623,5625.565159,-75537.016103
27355.252694,6661.853478,5773.606348,-75383.797003
27355.255268,21762.054695,5477.523971,-74617.701505
27355.257843,-148.041188,8882.471304,-73391.948708
27355.260418,5477.523971,6217.729913,-75843.454302
27355.262993,-4737.318029,5773.606348,-75843.454302
27355.265567,6069.688724,8734.430116,-74311.263306
27355.268142,14063.912898,4885.359217,-75996.673402
27355.270717,2960.823768,6217.729913,-74924.139704
27355.273292,15396.283594,3108.864956,-74924.139704
27355.275866,1924.535449,5773.606348,-73085.510509
27355.278441,-2220.617826,5033.400406,-77682.083497
27355.281016,-148.041188,8882.471304,-74770.920605
27355.283591,18653.189738,8142.265362,-75537.016103
27355.286166,5477.523971,10807.006753,-74464.482406
27355.288740,8290.306550,740.205942,-77835.302597
27355.291315,888.247130,5921.647536,-74770.920605
27355.293890,6069.688724,5773.606348,-74770.920605
27355.296465,3404.947333,9030.512492,-74770.920605
27355.299039,11547.212695,7550.100608,-74924.139704
27355.301614,18949.272115,7994.224174,-74617.701505
27355.304189,5033.400406,5625.565159,-74617.701505
27355.306764,-296.082377,1036.288319,-74924.139704
27355.309338,4293.194464,11251.130318,-73391.948708
27355.311913,-2516.700203,2516.700203,-77069.207099
27355.314488,21762.054695,8734.430116,-76609.549800
27355.317063,-4441.235652,5625.565159,-74464.482406
27355.319637,-17024.736666,5329.482782,-75383.797003
27355.322212,2516.700203,4885.359217,-75843.454302
27355.324787,-21614.013506,9474.636058,-73545.167808
27355.327362,7994.224174,3108.864956,-75230.577904
27355.329936,15100.201217,10658.965565,-74924.139704
27355.332511,2960.823768,6957.935855,-76149.892501
27355.335086,-8142.265362,5477.523971,-75077.358804
27355.337661,-1332.370696,6217.729913,-74924.139704
27355.340236,-20725.766376,4737.318029,-74924.139704
27355.342764,4441.235652,4589.276840,-74311.263306
27355.345293,-4589.276840,10362.883188,-73391.948708
27355.347822,16432.571912,7402.059420,-75996.673402
27355.350351,23982.672521,5477.523971,-75996.673402
27355.352880,-27091.537477,9030.512492,-71859.757712
27355.355409,4885.359217,1036.288319,-77835.302597
27355.357938,-23094.425390,10066.800811,-75843.454302
27355.360467,16876.695478,3552.988522,-76456.330700
27355.362995,-5329.482782,12731.542202,-72779.072310
27355.365524,4145.153275,-592.164754,-78448.178995
27355.368053,-3849.070898,10066.800811,-74617.701505
27355.370582,-1480.411884,4145.153275,-74770.920605
27355.373111,-888.247130,7698.141797,-74924.139704
27355.375640,-3256.906145,6661.853478,-76149.892501
27355.378169,-7994.224174,9178.553681,-74924.139704
27355.380698,-4737.318029,2960.823768,-76609.549800
27355.383227,17468.860231,8586.388927,-74617.701505
27355.385755,4737.318029,1628.453072,-77375.645298
27355.388284,25167.002028,6957.935855,-73391.948708
27355.390813,-3404.947333,5625.565159,-75077.358804
27355.393342,7105.977043,8882.471304,-76456.330700
27355.395871,-4441.235652,5033.400406,-76915.987999
27355.398400,4737.318029,8882.471304,-73851.606007
27355.400929,21614.013506,4885.359217,-75537.016103
27355.403458,7994.224174,5625.565159,-75690.235202
27355.405987,1480.411884,5625.565159,-73698.386908
27355.408515,-2960.823768,6217.729913,-73698.386908
27355.411044,5477.523971,7994.224174,-76609.549800
27355.413573,-5625.565159,5477.523971,-76149.892501
27355.416102,20725.766376,8142.265362,-74311.263306
27355.418631,5181.441594,8882.471304,-73851.606007
27355.421160,2516.700203,3849.070898,-75230.577904
27355.423689,13175.665768,6217.729913,-73851.606007
27355.426218,-7105.977043,7254.018232,-75537.016103
27355.428747,16432.571912,7402.059420,-76456.330700
27355.431275,6513.812290,8882.471304,-75230.577904
27355.433804,22946.384202,6217.729913,-75537.016103
27355.436333,-8290.306550,4885.359217,-74617.701505
27355.438862,10658.965565,3849.070898,-74617.701505
27355.441391,-4737.318029,8438.347739,-74924.139704
27355.443930,8734.430116,5625.565159,-76762.768900
27355.446468,13471.748144,5921.647536,-74464.482406
27355.449007,-19245.354492,6957.935855,-74770.920605
27355.451546,-2072.576638,6809.894666,-77069.207099
27355.454085,-13175.665768,7105.977043,-74311.263306
27355.456623,-12583.501014,3849.070898,-75077.358804
27355.459162,17764.942608,4885.359217,-74924.139704
27355.461701,-592.164754,9178.553681,-74770.920605
27355.464240,3256.906145,3404.947333,-76762.768900
27355.466778,-4145.153275,8290.306550,-74311.263306
27355.469317,-19245.354492,3108.864956,-76303.111601
27355.471856,-5033.400406,4589.276840,-74617.701505
27355.474395,6809.894666,7254.018232,-74770.920605
27355.476933,3404.947333,10066.800811,-74617.701505
27355.479472,-1628.453072,1924.535449,-77835.302597
27355.482011,-1332.370696,7994.224174,-73391.948708
27355.484550,-6217.729913,4293.194464,-75690.235202
27355.487088,-12879.583391,7254.018232,-75537.016103
27355.489627,2516.700203,9622.677246,-74924.139704
27355.492166,-4737.318029,6217.729913,-74924.139704
27355.494705,3849.070898,8438.347739,-75690.235202
27355.497243,-4885.359217,3849.070898,-76303.111601
27355.499782,592.164754,6069.688724,-74770.920605
27355.502321,-3108.864956,5329.482782,-74770.920605
27355.504860,1628.453072,7698.141797,-75383.797003
27355.507398,-10955.047942,6069.688724,-75996.673402
27355.509937,-5181.441594,6365.771101,-74770.920605
27355.512476,18209.066173,7994.224174,-74924.139704
27355.515014,2664.741391,4145.153275,-75230.577904
27355.517553,27091.537477,4293.194464,-74464.482406
27355.520092,-2960.823768,7254.018232,-73238.729609
27355.522631,6217.729913,7550.100608,-76762.768900
27355.525169,-3256.906145,6661.853478,-77528.864398
27355.527708,5329.482782,7402.059420,-74464.482406
27355.530247,24722.878463,5921.647536,-74617.701505
27355.532786,7846.182985,6513.812290,-74770.920605
27355.535324,4293.194464,3108.864956,-74158.044206
27355.537863,-1036.288319,5329.482782,-73545.167808
27355.540402,444.123565,8586.388927,-75537.016103
27355.542941,-3108.864956,4589.276840,-75690.235202
27355.545486,19985.560434,10362.883188,-74311.263306
27355.548032,9474.636058,7994.224174,-75690.235202
27355.550577,1036.288319,1480.411884,-75843.454302
27355.553123,9622.677246,8142.265362,-74004.825107
27355.555668,1184.329507,3849.070898,-76609.549800
27355.558214,7698.141797,9326.594869,-75690.235202
27355.560759,11251.130318,6513.812290,-75537.016103
27355.563305,21762.054695,10955.047942,-74464.482406
27355.565850,-6365.771101,1480.411884,-75843.454302
27355.568396,8882.471304,7994.224174,-74617.701505
27355.570941,-3256.906145,6069.688724,-75537.016103
27355.573487,11103.089130,4145.153275,-76149.892501
27355.576033,1036.288319,6661.853478,-75690.235202
27355.578578,-11251.130318,7550.100608,-76303.111601
27355.581124,-7254.018232,6809.894666,-76303.111601
27355.583669,-15100.201217,5181.441594,-74311.263306
27355.586215,6069.688724,3997.112087,-74924.139704
27355.588760,9178.553681,9030.512492,-74464.482406
27355.591306,-2368.659014,7105.977043,-76456.330700
27355.593851,5921.647536,6365.771101,-75077.358804
27355.596397,-14508.036463,8882.471304,-74158.044206
27355.598942,-19541.436869,2516.700203,-75996.673402
27355.601488,-6957.935855,5625.565159,-74617.701505
27355.604033,13767.830521,10214.842000,-74617.701505
27355.606579,2664.741391,6365.771101,-76762.768900
27355.609125,6069.688724,9030.512492,-74004.825107
27355.611670,-18061.024985,4737.318029,-73851.606007
27355.614216,-14063.912898,3552.988522,-76609.549800
27355.616761,-3849.070898,7105.977043,-75843.454302
27355.619307,2960.823768,8438.347739,-76149.892501
27355.621852,-592.164754,7105.977043,-75690.235202
27355.624398,4145.153275,6661.853478,-75843.454302
27355.626943,-1776.494261,5033.400406,-75230.577904
27355.629489,296.082377,6069.688724,-74004.825107
27355.632034,-5921.647536,5921.647536,-74311.263306
27355.634580,-10658.965565,6069.688724,-78141.740796
27355.637125,-6661.853478,8142.265362,-75077.358804
27355.639671,12879.583391,5773.606348,-74924.139704
27355.642216,6809.894666,7698.141797,-74770.920605
27355.644762,25167.002028,888.247130,-75537.016103
27355.647314,888.247130,9030.512492,-72625.853210
27355.649865,6069.688724,6217.729913,-77528.864398
27355.652417,-6513.812290,9918.759623,-75690.235202
27355.654968,6069.688724,6069.688724,-75690.235202
27355.657520,26943.496289,6661.853478,-74311.263306
27355.660071,5477.523971,6513.812290,-74464.482406
27355.662623,17912.983796,1184.329507,-74158.044206
27355.665175,-5329.482782,6217.729913,-72932.291410
27355.667726,-2072.576638,7994.224174,-75537.016103
27355.670278,11103.089130,2072.576638,-76303.111601
27355.672829,12139.377449,11251.130318,-74004.825107
27355.675381,7698.141797,7105.977043,-75077.358804
27355.677932,5921.647536,1776.494261,-74617.701505
27355.680484,-4145.153275,7402.059420,-72779.072310
27355.683035,20281.642811,3108.864956,-75537.016103
27355.685587,-14063.912898,11547.212695,-74924.139704
27355.688139,27831.743419,2368.659014,-76762.768900
27355.690690,0.000000,14952.160028,-72012.976812
27355.693242,5625.565159,-3849.070898,-77835.302597
27355.695793,3552.988522,12287.418637,-73391.948708
27355.698345,-740.205942,3108.864956,-75537.016103
27355.700896,14063.912898,5921.647536,-75537.016103
27355.703448,-4589.276840,4885.359217,-75690.235202
27355.706000,-7994.224174,11547.212695,-75537.016103
27355.708551,-5625.565159,4441.235652,-78294.959896
27355.711103,-11399.171507,2960.823768,-74004.825107
27355.713654,13027.624579,5477.523971,-74770.920605
27355.716206,7105.977043,7105.977043,-74311.263306
27355.718757,-3701.029710,8142.265362,-75537.016103
27355.721309,3997.112087,6513.812290,-75690.235202
27355.723860,-16284.530724,9474.636058,-74924.139704
27355.726412,-17764.942608,2812.782580,-76456.330700
27355.728969,4441.235652,6661.853478,-74924.139704
27355.731526,592.164754,7994.224174,-74004.825107
27355.734082,5181.441594,6217.729913,-76456.330700
27355.736639,5329.482782,7846.182985,-75690.235202
27355.739196,-12583.501014,4145.153275,-74924.139704
27355.741753,-4589.276840,6513.812290,-75077.358804
27355.744310,-15544.324782,4145.153275,-76609.549800
27355.746866,7402.059420,8586.388927,-75383.797003
27355.749423,-8290.306550,9622.677246,-75537.016103
27355.751980,16136.489536,5033.400406,-76456.330700
27355.754537,-5329.482782,7105.977043,-74004.825107
27355.757094,740.205942,4293.194464,-74004.825107
27355.759651,-15396.283594,7698.141797,-75843.454302
27355.762207,-9474.636058,5477.523971,-76762.768900
27355.764764,9770.718434,7402.059420,-74617.701505
27355.767321,16728.654289,7994.224174,-74158.044206
27355.769878,21762.054695,1776.494261,-74311.263306
27355.772435,5773.606348,9326.594869,-71859.757712
27355.774991,-14656.077652,2516.700203,-75996.673402
27355.777548,1924.535449,9326.594869,-76762.768900
27355.780105,-1332.370696,8586.388927,-74770.920605
27355.782662,17320.819043,6217.729913,-74617.701505
27355.785219,1776.494261,7550.100608,-74924.139704
27355.787775,28275.866984,1184.329507,-76609.549800
27355.790332,-3404.947333,7550.100608,-73851.606007
27355.792889,-6365.771101,3256.906145,-78448.178995
27355.795446,3404.947333,15248.242405,-74464.482406
27355.798003,296.082377,296.082377,-76456.330700
27355.800559,26203.290347,10214.842000,-74770.920605
27355.803116,4293.194464,5773.606348,-74770.920605
27355.805673,-4145.153275,888.247130,-74770.920605
27355.808230,14508.036463,10955.047942,-73851.606007
27355.810787,-6217.729913,5181.441594,-76303.111601
27355.813344,20725.766376,7698.141797,-75230.577904
27355.815900,9326.594869,9474.636058,-73698.386908
27355.818457,2812.782580,4589.276840,-76456.330700
27355.821014,2220.617826,4589.276840,-75690.235202
27355.823571,5033.400406,7254.018232,-74158.044206
27355.826128,12583.501014,2516.700203,-76762.768900
27355.828684,-12287.418637,8290.306550,-74770.920605
27355.831244,0.000000,10362.883188,-76609.549800
27355.833805,-20133.601622,6661.853478,-76303.111601
27355.836365,-888.247130,4293.194464,-74464.482406
27355.838925,5921.647536,5181.441594,-73851.606007
27355.841485,7402.059420,6809.894666,-74924.139704
27355.844045,-2812.782580,6365.771101,-75690.235202
27355.846605,-4145.153275,9326.594869,-75230.577904
27355.849165,-18209.066173,7254.018232,-76303.111601
27355.851725,-4885.359217,2960.823768,-75996.673402
27355.854286,-7105.977043,6661.853478,-74158.044206
27355.856846,18949.272115,6513.812290,-75383.797003
27355.859406,-296.082377,8290.306550,-75690.235202
27355.861966,1184.329507,5625.565159,-75383.797003
27355.864526,-8290.306550,6957.935855,-75230.577904
27355.867086,-9918.759623,3849.070898,-76762.768900
27355.869646,-1332.370696,5477.523971,-75537.016103
27355.872206,-3552.988522,10066.800811,-74617.701505
27355.874766,11399.171507,4589.276840,-76456.330700
27355.877327,-592.164754,8882.471304,-75996.673402
27355.879887,4145.153275,2664.741391,-75843.454302
27355.882447,-10658.965565,5625.565159,-73545.167808
27355.885007,-13471.748144,6069.688724,-76303.111601
27355.887567,-11103.089130,6217.729913,-76609.549800
27355.890127,26055.249158,10955.047942,-75077.358804
27355.892687,-2516.700203,5181.441594,-74311.263306
27355.895247,38638.750172,1924.535449,-74617.701505
27355.897807,-8882.471304,6809.894666,-71859.757712
27355.900368,5921.647536,4737.318029,-75843.454302
27355.902928,-10362.883188,9178.553681,-75996.673402
27355.905488,7254.018232,9918.759623,-75537.016103
27355.908048,28719.990550,6217.729913,-75230.577904
27355.910608,1924.535449,9622.677246,-72625.853210
27355.913168,17764.942608,1480.411884,-76303.111601
27355.915728,-15396.283594,5921.647536,-76149.892501
27355.918288,3849.070898,7254.018232,-77222.426198
27355.920849,-444.123565,7550.100608,-76456.330700
27355.923409,11103.089130,7698.141797,-76609.549800
27355.925969,18653.189738,6365.771101,-76609.549800
27355.928529,3256.906145,3552.988522,-74158.044206
27355.931089,11399.171507,5181.441594,-72319.415011
27355.933651,-148.041188,9178.553681,-74004.825107
27355.936213,2812.782580,5329.482782,-76915.987999
27355.938776,17764.942608,10066.800811,-74004.825107
27355.941338,11399.171507,5921.647536,-74924.139704
27355.943900,-6069.688724,5329.482782,-76303.111601
27355.946462,11991.336260,4441.235652,-74617.701505
27355.949024,10807.006753,7550.100608,-73698.386908
27355.951586,-13027.624579,2664.741391,-75537.016103
27355.954149,-1036.288319,11843.295072,-75690.235202
27355.956711,-8290.306550,8734.430116,-76762.768900
27355.959273,-13915.871710,5033.400406,-74311.263306
27355.961835,10510.924376,2812.782580,-75383.797003
27355.964397,3552.988522,8882.471304,-74311.263306
27355.966960,-888.247130,3997.112087,-76303.111601
27355.969522,-1628.453072,7994.224174,-75383.797003
27355.972084,-14508.036463,8142.265362,-76303.111601
27355.974646,-13767.830521,2960.823768,-75996.673402
27355.977208,6069.688724,3997.112087,-74924.139704
27355.979770,2072.576638,10214.842000,-72779.072310
27355.982333,2516.700203,4293.194464,-76609.549800
27355.984895,296.082377,5477.523971,-75230.577904
27355.987457,-2812.782580,7402.059420,-75230.577904
27355.990019,-21762.054695,3404.947333,-75077.358804
27355.992581,5329.482782,5477.523971,-75996.673402
27355.995144,-19097.313304,9178.553681,-74158.044206
27355.997706,25018.960840,6069.688724,-76456.330700
27356.000268,-8734.430116,9326.594869,-74924.139704
27356.002830,4293.194464,1184.329507,-77069.207099
27356.005392,-5921.647536,8290.306550,-72472.634111
27356.007955,-18949.272115,2516.700203,-76609.549800
27356.010517,-12435.459826,7698.141797,-76149.892501
27356.013079,25167.002028,9622.677246,-75996.673402
27356.015641,5033.400406,6217.729913,-74924.139704
27356.018203,41747.615129,3256.906145,-75690.235202
27356.020765,-7698.141797,7402.059420,-72932.291410
27356.023328,4589.276840,2516.700203,-78601.398095
27356.025890,-4441.235652,9474.636058,-74924.139704
27356.028452,-888.247130,6661.853478,-76149.892501
27356.031014,36566.173535,6365.771101,-77222.426198
27356.033576,7550.100608,9622.677246,-73238.729609
27356.036140,8142.265362,2072.576638,-74924.139704
27356.038704,-3108.864956,6513.812290,-75537.016103
27356.041268,-10066.800811,6069.688724,-77682.083497
27356.043833,2220.617826,6661.853478,-76149.892501
27356.046397,15544.324782,9622.677246,-75230.577904
27356.048961,14359.995275,4145.153275,-77375.645298
27356.051525,5921.647536,5773.606348,-74004.825107
27356.054090,3404.947333,5921.647536,-72166.195912
27356.056654,7550.100608,6069.688724,-76303.111601
27356.059218,-2812.782580,8438.347739,-75077.358804
27356.061783,20873.807564,8586.388927,-75690.235202
27356.064347,1332.370696,7846.182985,-75077.358804
27356.066911,6069.688724,3404.947333,-77835.302597
27356.069476,9030.512492,6661.853478,-73391.948708
27356.072040,11399.171507,3256.906145,-75077.358804
27356.074604,-27535.661042,9770.718434,-74924.139704
27356.077168,444.123565,9030.512492,-77835.302597
27356.079733,-19097.313304,8290.306550,-75996.673402
27356.082297,4589.276840,3108.864956,-75230.577904
27356.084861,14952.160028,7550.100608,-73545.167808
27356.087426,592.164754,5329.482782,-75843.454302
27356.089990,0.000000,6069.688724,-75537.016103
27356.092554,888.247130,9178.553681,-73545.167808
27356.095118,-18801.230927,2664.741391,-79061.055394
27356.097683,4589.276840,5773.606348,-75537.016103
27356.100247,-5181.441594,7846.182985,-73851.606007
27356.102811,19541.436869,5773.606348,-76609.549800
27356.105376,-3404.947333,9030.512492,-75537.016103
27356.107940,-3552.988522,5181.441594,-75843.454302
27356.110504,-21614.013506,5181.441594,-75077.358804
27356.113069,-6513.812290,4885.359217,-75843.454302
27356.115633,-1036.288319,6809.894666,-75230.577904
27356.118197,6809.894666,4737.318029,-75843.454302
27356.120761,7550.100608,10214.842000,-74617.701505
27356.123326,-4145.153275,3552.988522,-76456.330700
27356.125890,-296.082377,5181.441594,-75996.673402
27356.128454,-24574.837274,6217.729913,-74617.701505
27356.131019,-12435.459826,3849.070898,-76149.892501
27356.133583,9918.759623,7994.224174,-75843.454302
27356.136147,4145.153275,7550.100608,-73545.167808
27356.138713,41747.615129,2072.576638,-73698.386908
27356.141279,-7254.018232,9622.677246,-71553.319513
27356.143845,-2516.700203,1924.535449,-78294.959896
27356.146411,-3256.906145,7550.100608,-75690.235202
27356.148977,2220.617826,7550.100608,-74924.139704
27356.151543,33013.185013,7402.059420,-75843.454302
27356.154109,7550.100608,5625.565159,-74924.139704
27356.156674,15100.201217,592.164754,-76915.987999
27356.159240,-13175.665768,9326.594869,-73851.606007
27356.161806,14656.077652,2960.823768,-76149.892501
27356.164372,-26647.413912,7550.100608,-75230.577904
27356.166938,36566.173535,7254.018232,-76609.549800
27356.169504,-3701.029710,7550.100608,-74158.044206
27356.172070,17468.860231,4145.153275,-74158.044206
27356.174636,-1332.370696,6365.771101,-73085.510509
27356.177202,444.123565,3108.864956,-77222.426198
27356.179768,4737.318029,11103.089130,-73851.606007
27356.182334,11843.295072,5477.523971,-75996.673402
27356.184900,5181.441594,11103.089130,-74311.263306
27356.187465,3849.070898,-740.205942,-76456.330700
27356.190031,14508.036463,8586.388927,-72779.072310
27356.192597,-888.247130,1628.453072,-75077.358804
27356.195163,-20577.725188,10362.883188,-75690.235202
27356.197729,-3997.112087,7105.977043,-78907.836294
27356.200295,-13915.871710,9622.677246,-74924.139704
27356.202861,7846.182985,1332.370696,-75383.797003
27356.205427,18209.066173,7550.100608,-73698.386908
27356.207993,-3256.906145,6661.853478,-75077.358804
27356.210559,-148.041188,5033.400406,-75383.797003
27356.213125,-13175.665768,11103.089130,-75843.454302
27356.215690,-22798.343014,5033.400406,-78294.959896
27356.218256,2220.617826,5477.523971,-75690.235202
27356.220822,9918.759623,7698.141797,-74158.044206
27356.223388,8734.430116,6957.935855,-75843.454302
27356.225954,-8882.471304,3552.988522,-75537.016103
27356.228520,3997.112087,9622.677246,-74617.701505
27356.231086,-12139.377449,5181.441594,-76456.330700
27356.233652,-13323.706956,5773.606348,-75537.016103
27356.236218,8586.388927,7105.977043,-75230.577904
27356.238784,6513.812290,5773.606348,-74004.825107
27356.241350,8290.306550,8438.347739,-75383.797003
27356.243917,-13175.665768,3256.906145,-74617.701505
27356.246483,-592.164754,6365.771101,-75077.358804
27356.249050,-32272.979071,9326.594869,-75230.577904
27356.251616,5921.647536,4441.235652,-76456.330700
27356.254183,33605.349767,14063.912898,-72166.195912
27356.256749,22502.260637,2960.823768,-74004.825107
27356.259315,30792.567187,10955.047942,-71400.100414
27356.261882,-31532.773129,-1036.288319,-75383.797003
27356.264448,0.000000,9474.636058,-74770.920605
27356.267015,-3849.070898,8734.430116,-74617.701505
27356.269581,-2220.617826,9622.677246,-74617.701505
27356.272148,20577.725188,2960.823768,-76303.111601
27356.274714,30052.361245,10807.006753,-74311.263306
27356.277281,-13619.789333,0.000000,-75383.797003
27356.279847,592.164754,7402.059420,-75996.673402
27356.282414,-888.247130,10510.924376,-75690.235202
27356.284980,-5033.400406,5773.606348,-75843.454302
27356.287547,30792.567187,7550.100608,-77375.645298
27356.290113,2516.700203,6809.894666,-74004.825107
27356.292680,14952.160028,2220.617826,-73851.606007
27356.295246,-2220.617826,5773.606348,-73085.510509
27356.297813,2368.659014,6365.771101,-75843.454302
27356.300379,4885.359217,9474.636058,-75383.797003
27356.302946,2960.823768,6069.688724,-76303.111601
27356.305512,18357.107362,7402.059420,-76609.549800
27356.308079,6217.729913,4441.235652,-74770.920605
27356.310645,15988.448347,1332.370696,-74311.263306
27356.313211,-34345.555709,7846.182985,-73545.167808
27356.315778,-2516.700203,8438.347739,-79061.055394
27356.318344,-10066.800811,9474.636058,-77528.864398
27356.320911,-5625.565159,5921.647536,-74158.044206
27356.323477,23834.631332,5773.606348,-74311.263306
27356.326044,4441.235652,3404.947333,-75230.577904
27356.328610,-7994.224174,5921.647536,-73698.386908
27356.331177,-3404.947333,5477.523971,-75383.797003
27356.333743,-29016.072926,7402.059420,-77528.864398
27356.336310,13323.706956,3701.029710,-77069.207099
27356.338876,-2960.823768,10955.047942,-72779.072310
27356.341443,11399.171507,2960.823768,-75537.016103
27356.344010,4441.235652,5181.441594,-74770.920605
27356.346578,-5477.523971,7105.977043,-74617.701505
27356.349145,-12287.418637,5921.647536,-76149.892501
27356.351712,-22058.137072,11399.171507,-75230.577904
27356.354280,-740.205942,4589.276840,-75996.673402
27356.356847,21021.848753,10066.800811,-73238.729609
27356.359415,-2516.700203,1776.494261,-75077.358804
27356.361982,3108.864956,2368.659014,-75996.673402
27356.364549,-11843.295072,7994.224174,-74617.701505
27356.367117,-23390.507767,7994.224174,-76149.892501
27356.369684,-8586.388927,3849.070898,-77682.083497
27356.372252,39823.079680,18061.024985,-72779.072310
27356.374819,44264.315332,4589.276840,-73545.167808
27356.377386,3701.029710,10510.924376,-70940.443115
27356.379954,-36714.214723,1036.288319,-75077.358804
27356.382521,5477.523971,8290.306550,-76609.549800
27356.385089,-5625.565159,9918.759623,-75230.577904
27356.387656,5477.523971,8586.388927,-74770.920605
27356.390223,26499.372724,888.247130,-76609.549800
27356.392791,26499.372724,12287.418637,-71093.662214
27356.395358,-3849.070898,3849.070898,-74311.263306
27356.397926,-7254.018232,1332.370696,-77988.521696
27356.400493,-4589.276840,16580.613101,-73391.948708
27356.403060,7846.182985,2960.823768,-78141.740796
27356.405628,18209.066173,6809.894666,-77069.207099
27356.408195,22206.178260,5773.606348,-73391.948708
27356.410763,14952.160028,5773.606348,-74004.825107
27356.413330,-1332.370696,1480.411884,-74924.139704
27356.415897,6217.729913,8438.347739,-75843.454302
27356.418465,-7105.977043,10955.047942,-74924.139704
27356.421032,11251.130318,5625.565159,-76762.768900
27356.423600,20281.642811,9622.677246,-75077.358804
27356.426167,11399.171507,1480.411884,-75537.016103
27356.428734,4293.194464,1036.288319,-71859.757712
27356.431302,-19541.436869,9474.636058,-75383.797003
27356.433869,-14211.954086,8290.306550,-79214.274493
27356.436437,-7846.182985,6513.812290,-75996.673402
27356.439004,6513.812290,8438.347739,-74004.825107
27356.441571,13323.706956,1924.535449,-75996.673402
27356.444139,10658.965565,5033.400406,-73085.510509
27356.446706,-6365.771101,4589.276840,-74158.044206
27356.449274,-9326.594869,8586.388927,-76456.330700
27356.451842,-16580.613101,6365.771101,-77222.426198
27356.454410,-10658.965565,7254.018232,-75230.577904
27356.456977,25167.002028,8882.471304,-75230.577904
27356.459545,740.205942,4293.194464,-75383.797003
27356.462113,-5033.400406,1332.370696,-75077.358804
27356.464680,-3404.947333,7698.141797,-72932.291410
27356.467248,-25167.002028,7994.224174,-76762.768900
27356.469816,-10510.924376,6957.935855,-76762.768900
27356.472383,1184.329507,10510.924376,-74770.920605
27356.474951,17320.819043,6661.853478,-74770.920605
27356.477519,12287.418637,5181.441594,-73698.386908
27356.480086,-8438.347739,5181.441594,-74311.263306
27356.482654,-29312.155303,6809.894666,-76915.987999
27356.485222,-11103.089130,7550.100608,-76303.111601
27356.487790,21169.889941,12139.377449,-76609.549800
27356.490357,2072.576638,2220.617826,-76456.330700
27356.492925,64842.040519,2368.659014,-76456.330700
27356.495493,888.247130,2516.700203,-74158.044206
27356.498060,-2368.659014,6809.894666,-76303.111601
27356.500628,-2220.617826,8734.430116,-75383.797003
27356.503196,-22502.260637,10066.800811,-75230.577904
27356.505763,29756.278868,148.041188,-77682.083497
27356.508331,31976.896694,11991.336260,-72166.195912
27356.510899,4885.359217,3404.947333,-72472.634111
27356.513466,-5921.647536,3404.947333,-75843.454302
27356.516034,9326.594869,6513.812290,-75537.016103
27356.518602,-15396.283594,14063.912898,-75230.577904
27356.521169,20281.642811,5625.565159,-76303.111601
27356.523737,4885.359217,7254.018232,-73391.948708
27356.526305,25611.125593,1924.535449,-73851.606007
27356.528873,4885.359217,5181.441594,-73391.948708
27356.531440,-3552.988522,5033.400406,-77222.426198
27356.534008,0.000000,9474.636058,-75383.797003
27356.536576,-4293.194464,11251.130318,-74158.044206
27356.539143,21465.972318,3849.070898,-76303.111601
27356.541711,5329.482782,4441.235652,-74617.701505
27356.544279,5477.523971,-1776.494261,-73851.606007
27356.546846,-17024.736666,11251.130318,-74924.139704
27356.549414,-23094.425390,8734.430116,-79061.055394
27356.551982,-6365.771101,7698.141797,-75843.454302
27356.554550,0.000000,8290.306550,-74924.139704
27356.557118,11843.295072,4145.153275,-75996.673402
27356.559686,23834.631332,1924.535449,-75996.673402
27356.562254,-9030.512492,5033.400406,-74464.482406
27356.564822,-15840.407159,7994.224174,-76456.330700
27356.567390,-23686.590144,8142.265362,-76456.330700
27356.569958,14952.160028,7846.182985,-75537.016103
27356.572526,-14359.995275,8142.265362,-74004.825107
27356.575094,21169.889941,-1332.370696,-78141.740796
27356.577662,-12583.501014,6809.894666,-70021.128517
27356.580230,3997.112087,3108.864956,-74004.825107
27356.582797,-18949.272115,12879.583391,-76456.330700
27356.585365,-10510.924376,5773.606348,-77069.207099
27356.587933,10955.047942,12583.501014,-74464.482406
27356.590501,2368.659014,1480.411884,-76303.111601
27356.593069,19837.519246,2220.617826,-73085.510509
27356.595637,-23982.672521,4145.153275,-73851.606007
27356.598205,-7105.977043,4293.194464,-76762.768900
27356.600773,-6809.894666,7698.141797,-76762.768900
27356.603341,31680.814318,18949.272115,-73545.167808
27356.605909,30792.567187,3849.070898,-74924.139704
27356.608477,29904.320057,8438.347739,-69561.471218
27356.611045,-24870.919651,-1332.370696,-76609.549800
27356.613613,-1480.411884,6809.894666,-78141.740796
27356.616181,3701.029710,10658.965565,-75843.454302
27356.618749,6809.894666,10362.883188,-75230.577904
27356.621317,20133.601622,5181.441594,-75996.673402
27356.623884,33309.267390,7550.100608,-72319.415011
27356.626452,2664.741391,5033.400406,-71400.100414
27356.629020,-20281.642811,-592.164754,-77069.207099
27356.631588,4885.359217,10955.047942,-75537.016103
27356.634156,-5625.565159,10510.924376,-74924.139704
27356.636724,29164.114115,5329.482782,-77528.864398
27356.639292,18949.272115,5477.523971,-74924.139704
27356.641860,20429.683999,1924.535449,-73698.386908
27356.644428,2368.659014,4885.359217,-72166.195912
27356.646996,-7550.100608,3849.070898,-78448.178995
27356.649564,-5625.565159,14656.077652,-75537.016103
27356.652132,11695.253884,5181.441594,-75843.454302
27356.654700,25611.125593,8290.306550,-74770.920605
27356.657269,9326.594869,-592.164754,-74617.701505
27356.659837,-16728.654289,7994.224174,-71706.538613
27356.662406,-16284.530724,5477.523971,-79061.055394
27356.664974,-20429.683999,8586.388927,-77375.645298
27356.667542,5477.523971,7550.100608,-74770.920605
27356.670111,2516.700203,8290.306550,-73391.948708
27356.672679,21614.013506,4589.276840,-75537.016103
27356.675247,-7698.141797,5921.647536,-71706.538613
27356.677816,-15544.324782,4293.194464,-74924.139704
27356.680384,-14952.160028,7698.141797,-75843.454302
27356.682952,-14804.118840,8586.388927,-74311.263306
27356.685521,5181.441594,8290.306550,-74004.825107
27356.688089,9622.677246,7698.141797,-76149.892501
27356.690657,16284.530724,1184.329507,-74004.825107
27356.693226,-24870.919651,3404.947333,-75690.235202
27356.695794,-8586.388927,4737.318029,-76456.330700
27356.698362,-16876.695478,9770.718434,-77528.864398
27356.700931,-1036.288319,9178.553681,-75996.673402
27356.703499,19393.395680,9474.636058,-74617.701505
27356.706067,2812.782580,2812.782580,-75077.358804
27356.708636,-9030.512492,3701.029710,-74311.263306
27356.711204,-15692.365970,2368.659014,-76609.549800
27356.713772,-10214.842000,8586.388927,-76456.330700
27356.716341,20281.642811,19245.354492,-75690.235202
27356.718909,26499.372724,888.247130,-79827.150892
27356.721477,42487.821071,9474.636058,-73698.386908
27356.724046,444.123565,444.123565,-74924.139704
27356.726614,-8734.430116,5329.482782,-77069.207099
27356.729182,3849.070898,5181.441594,-75230.577904
27356.731751,-17320.819043,14508.036463,-74004.825107
27356.734319,33901.432144,296.082377,-76762.768900
27356.736887,29904.320057,7994.224174,-74770.920605
27356.739456,2072.576638,1332.370696,-74464.482406
27356.742024,-3108.864956,5181.441594,-75996.673402
27356.744592,-1332.370696,10510.924376,-75077.358804
27356.747161,-5033.400406,5921.647536,-78601.398095
27356.749729,17320.819043,11547.212695,-74770.920605
27356.752297,9326.594869,3108.864956,-76456.330700
27356.754865,26203.290347,7105.977043,-73238.729609
27356.757433,-6957.935855,1776.494261,-72472.634111
27356.760001,592.164754,5329.482782,-77528.864398
27356.762569,-3108.864956,14063.912898,-75077.358804
27356.765136,2368.659014,8290.306550,-76915.987999
27356.767704,27387.619854,7846.182985,-75383.797003
27356.770272,4441.235652,444.123565,-74617.701505
27356.772840,-15248.242405,4589.276840,-74464.482406
27356.775408,-9178.553681,6365.771101,-77682.083497
27356.777975,-19245.354492,5181.441594,-77682.083497
27356.780543,4737.318029,8734.430116,-75690.235202
27356.783111,296.082377,7105.977043,-74770.920605
27356.785679,19541.436869,2516.700203,-75537.016103
27356.788247,-6365.771101,8882.471304,-70480.785816
27356.790815,-20577.725188,4293.194464,-74464.482406
27356.793382,-27535.661042,8290.306550,-75996.673402
27356.795950,7402.059420,6217.729913,-76149.892501
27356.798518,-3256.906145,8586.388927,-76303.111601
27356.801086,15840.407159,5773.606348,-75537.016103
27356.803654,1924.535449,3701.029710,-74158.044206
27356.806221,-7105.977043,3997.112087,-73698.386908
27356.808789,-12731.542202,6809.894666,-77222.426198
27356.811357,-19689.478057,7994.224174,-76456.330700
27356.813925,8882.471304,11103.089130,-74924.139704
27356.816493,1036.288319,8438.347739,-74617.701505
27356.819060,6661.853478,-1480.411884,-75690.235202
27356.821628,-13471.748144,6957.935855,-74770.920605
27356.824196,-4589.276840,1480.411884,-75230.577904
27356.826764,7105.977043,11547.212695,-74464.482406
27356.829332,4441.235652,8290.306550,-75690.235202
27356.831900,30348.443622,6661.853478,-73085.510509
27356.834467,10362.883188,6957.935855,-69714.690318
27356.837035,-11251.130318,3701.029710,-72012.976812
27356.839603,-7105.977043,4589.276840,-76456.330700
27356.842171,7698.141797,12287.418637,-75077.358804
27356.844739,11695.253884,6069.688724,-76456.330700
27356.847306,17024.736666,9770.718434,-74004.825107
27356.849874,20725.766376,2368.659014,-72472.634111
27356.852442,-9030.512492,5181.441594,-72012.976812
27356.855010,296.082377,4885.359217,-76149.892501
27356.857577,-13915.871710,8290.306550,-76303.111601
27356.860145,11843.295072,8290.306550,-76456.330700
27356.862712,26943.496289,10066.800811,-74924.139704
27356.865280,6365.771101,1332.370696,-76456.330700
27356.867847,23242.466579,3997.112087,-74311.263306
27356.870415,1480.411884,4885.359217,-75383.797003
27356.872982,-9030.512492,7254.018232,-77069.207099
27356.875550,-3256.906145,9770.718434,-75537.016103
27356.878117,20133.601622,11103.089130,-74617.701505
27356.880685,-148.041188,-1480.411884,-76456.330700
27356.883252,-1924.535449,4589.276840,-73391.948708
27356.885819,-12879.583391,7105.977043,-75690.235202
27356.888387,-17764.942608,7254.018232,-77222.426198
27356.890954,-6365.771101,9770.718434,-74158.044206
27356.893522,13323.706956,10362.883188,-75843.454302
27356.896089,11103.089130,6957.935855,-75690.235202
27356.898657,21021.848753,2960.823768,-74464.482406
27356.901224,-8438.347739,3256.906145,-75230.577904
27356.903792,-11251.130318,6661.853478,-77375.645298
27356.906359,-23538.548956,7105.977043,-76915.987999
27356.908927,-4441.235652,9622.677246,-75996.673402
27356.911494,8882.471304,10807.006753,-74924.139704
27356.914062,10066.800811,2368.659014,-77222.426198
27356.916629,-18505.148550,2812.782580,-73238.729609
27356.919197,-4441.235652,5181.441594,-74311.263306
27356.921764,-14952.160028,9030.512492,-77375.645298
27356.924332,-6069.688724,10658.965565,-76456.330700
27356.926899,18061.024985,9622.677246,-74924.139704
27356.929466,2072.576638,4589.276840,-74464.482406
27356.932034,-21910.095883,1628.453072,-74464.482406
27356.934601,2516.700203,592.164754,-75537.016103
27356.937169,16432.571912,10807.006753,-74004.825107
27356.939736,-1776.494261,11251.130318,-76915.987999
27356.942304,24722.878463,3256.906145,-77069.207099
27356.944871,13471.748144,4737.318029,-73545.167808
27356.947439,-3997.112087,4885.359217,-74158.044206
27356.950006,-1628.453072,1776.494261,-77835.302597
27356.952574,2664.741391,12879.583391,-73391.948708
27356.955141,-296.082377,8438.347739,-75690.235202
27356.957709,31828.855506,9178.553681,-77835.302597
27356.960276,444.123565,7846.182985,-74464.482406
27356.962843,23982.672521,4441.235652,-73085.510509
27356.965410,-18209.066173,-1480.411884,-77528.864398
27356.967977,4737.318029,9622.677246,-76456.330700
27356.970544,1480.411884,8734.430116,-74004.825107
27356.973111,32717.102636,9622.677246,-75996.673402
27356.975678,1628.453072,5181.441594,-74004.825107
27356.978245,22354.219448,4293.194464,-73545.167808
27356.980812,888.247130,2220.617826,-74004.825107
27356.983379,-5773.606348,9770.718434,-76303.111601
27356.985946,6957.935855,7846.182985,-76609.549800
27356.988513,15100.201217,9918.759623,-75077.358804
27356.991080,6809.894666,3997.112087,-74924.139704
27356.993647,-23390.507767,2072.576638,-73545.167808
27356.996214,-1924.535449,6365.771101,-74617.701505
27356.998781,-22650.301825,9326.594869,-74464.482406
27357.001348,-10214.842000,6957.935855,-75537.016103
27357.003915,7698.141797,7994.224174,-76303.111601
27357.006482,12583.501014,9178.553681,-74311.263306
27357.009049,-11103.089130,4293.194464,-72472.634111
27357.011616,-1776.494261,3108.864956,-75996.673402
27357.014183,-20577.725188,8586.388927,-75690.235202
27357.016750,-7994.224174,6513.812290,-77069.207099
27357.019317,8734.430116,4293.194464,-76762.768900
27357.021884,14359.995275,11695.253884,-74311.263306
27357.024451,-888.247130,-296.082377,-74158.044206
27357.027018,-14952.160028,4589.276840,-73238.729609
27357.029585,1184.329507,2960.823768,-75996.673402
27357.032152,-15840.407159,12287.418637,-75843.454302
27357.034719,1332.370696,5773.606348,-78907.836294
27357.037286,20725.766376,9030.512492,-73698.386908
27357.039853,-27091.537477,5477.523971,-73391.948708
27357.042420,-3256.906145,888.247130,-75537.016103
27357.044988,8142.265362,9474.636058,-73238.729609
27357.047555,3404.947333,15988.448347,-75690.235202
27357.050122,20429.683999,2368.659014,-80593.246390
27357.052689,33605.349767,11695.253884,-74004.825107
27357.055256,2664.741391,1332.370696,-74617.701505
27357.057823,-148.041188,5033.400406,-76303.111601
27357.060390,-7698.141797,6513.812290,-74617.701505
27357.062953,296.082377,11695.253884,-74924.139704
27357.065520,29460.196492,7402.059420,-78907.836294
27357.068086,5181.441594,7254.018232,-76149.892501
27357.070653,7402.059420,1776.494261,-73238.729609
27357.073219,13175.665768,3256.906145,-72932.291410
27357.075786,-12583.501014,7402.059420,-74617.701505
27357.078352,7402.059420,8882.471304,-74770.920605
27357.080919,18505.148550,9178.553681,-74464.482406
27357.083485,13915.871710,4293.194464,-74617.701505
27357.086052,10066.800811,4441.235652,-73545.167808
27357.088618,8586.388927,2664.741391,-74004.825107
27357.091185,-10955.047942,8586.388927,-75077.358804
27357.093751,-1480.411884,5921.647536,-77988.521696
27357.096318,12879.583391,12139.377449,-75690.235202
27357.098884,1332.370696,-296.082377,-76149.892501
27357.101451,-17912.983796,4441.235652,-72779.072310
27357.104017,-296.082377,6957.935855,-74004.825107
27357.106584,-26055.249158,9770.718434,-73238.729609
27357.109150,-9770.718434,6217.729913,-75843.454302
27357.111717,6661.853478,10214.842000,-74770.920605
27357.114283,19985.560434,7550.100608,-75843.454302
27357.116850,-148.041188,6661.853478,-72779.072310
27357.119416,296.082377,2960.823768,-74770.920605
27357.121983,-23686.590144,8586.388927,-73698.386908
27357.124549,-11843.295072,4293.194464,-77069.207099
27357.127116,-11991.336260,11843.295072,-74617.701505
27357.129683,20725.766376,7846.182985,-77375.645298
27357.132249,3404.947333,3552.988522,-75537.016103
27357.134816,-8290.306550,4589.276840,-74158.044206
27357.137382,-7846.182985,2812.782580,-74770.920605
27357.139949,-8586.388927,10658.965565,-76762.768900
27357.142515,888.247130,9326.594869,-77835.302597
27357.145081,9326.594869,7994.224174,-75230.577904
27357.147647,-10658.965565,5033.400406,-74464.482406
27357.150214,-11695.253884,888.247130,-76609.549800
27357.152780,14211.954086,3701.029710,-74311.263306
27357.155346,-2368.659014,15988.448347,-72932.291410
27357.157912,18949.272115,2516.700203,-79827.150892
27357.160479,25611.125593,9770.718434,-74924.139704
27357.163045,5921.647536,2220.617826,-73698.386908
27357.165611,-6809.894666,6069.688724,-75843.454302
27357.168177,5921.647536,3256.906145,-76456.330700
27357.170743,-7105.977043,10807.006753,-73391.948708
27357.173310,32421.020260,4441.235652,-78754.617194
27357.175876,-4737.318029,12879.583391,-73391.948708
27357.178442,12731.542202,-444.123565,-75230.577904
27357.181008,3256.906145,3404.947333,-72932.291410
27357.183574,3256.906145,10066.800811,-75996.673402
27357.186141,-1480.411884,6809.894666,-76149.892501
27357.188707,25759.166782,12287.418637,-75383.797003
27357.191273,10362.883188,5773.606348,-76149.892501
27357.193839,11399.171507,4737.318029,-74158.044206
27357.196406,2516.700203,1924.535449,-72166.195912
27357.198972,-2960.823768,7846.182985,-74770.920605
27357.201538,-3552.988522,6217.729913,-77835.302597
27357.204104,19837.519246,7698.141797,-75230.577904
27357.206670,-1332.370696,7254.018232,-74311.263306
27357.209237,-20429.683999,-592.164754,-75996.673402
27357.211803,148.041188,7698.141797,-74158.044206
27357.214369,-20281.642811,5921.647536,-74004.825107
27357.216935,-10214.842000,8142.265362,-75537.016103
27357.219502,14211.954086,7994.224174,-76609.549800
27357.222068,14952.160028,11399.171507,-75383.797003
27357.224634,-11251.130318,2960.823768,-74770.920605
27357.227200,-5625.565159,4589.276840,-74158.044206
27357.229766,-5625.565159,5477.523971,-74004.825107
27357.232333,-42931.944636,5181.441594,-76303.111601
27357.234899,27535.661042,8734.430116,-75537.016103
27357.237465,-4441.235652,11399.171507,-75383.797003
27357.240031,7550.100608,4145.153275,-75077.358804
27357.242597,-12139.377449,3552.988522,-73698.386908
27357.245164,-13323.706956,4885.359217,-76456.330700
27357.247730,-3108.864956,7105.977043,-76762.768900
27357.250296,-296.082377,10362.883188,-75690.235202
27357.252862,11991.336260,6217.729913,-75690.235202
27357.255429,-24722.878463,5033.400406,-74924.139704
27357.257995,7254.018232,2368.659014,-74617.701505
27357.260561,2220.617826,7105.977043,-73545.167808
27357.263127,1332.370696,7994.224174,-75383.797003
27357.265693,30348.443622,10658.965565,-74464.482406
27357.268259,7254.018232,4441.235652,-74004.825107
27357.270824,-3256.906145,4885.359217,-75230.577904
27357.273389,7105.977043,4293.194464,-74924.139704
27357.275954,-3997.112087,6809.894666,-74158.044206
27357.278520,15840.407159,7254.018232,-74004.825107
27357.281085,20281.642811,11103.089130,-74464.482406
27357.283650,6809.894666,4737.318029,-74924.139704
27357.286215,7994.224174,5773.606348,-74464.482406
27357.288781,-5181.441594,5477.523971,-75843.454302
27357.291346,1628.453072,5477.523971,-77222.426198
27357.293911,11251.130318,8290.306550,-74004.825107
27357.296476,23094.425390,11399.171507,-74770.920605
27357.299041,5181.441594,2664.741391,-77682.083497
27357.301607,15248.242405,5477.523971,-75077.358804
27357.304172,592.164754,5033.400406,-73698.386908
27357.306737,-6217.729913,4293.194464,-77528.864398
27357.309302,13471.748144,9326.594869,-75843.454302
27357.311868,12435.459826,6365.771101,-75843.454302
27357.314433,-14656.077652,7254.018232,-74158.044206
27357.316998,-4737.318029,5921.647536,-76915.987999
27357.319563,-9770.718434,6809.894666,-74311.263306
27357.322129,-26351.331535,4737.318029,-75537.016103
27357.324694,9474.636058,6365.771101,-77222.426198
27357.327259,14211.954086,8734.430116,-75996.673402
27357.329824,-7105.977043,8734.430116,-74770.920605
27357.332390,2960.823768,888.247130,-77835.302597
27357.334955,-14656.077652,9326.594869,-73391.948708
27357.337520,-9770.718434,2220.617826,-76762.768900
27357.340085,-8142.265362,9622.677246,-74311.263306
27357.342651,14952.160028,10362.883188,-75843.454302
27357.345216,-740.205942,6069.688724,-76456.330700
27357.347781,1036.288319,5181.441594,-74311.263306
27357.350346,-18061.024985,3552.988522,-73545.167808
27357.352911,-6661.853478,9178.553681,-75537.016103
27357.355476,-1924.535449,6957.935855,-75843.454302
27357.358041,7550.100608,10658.965565,-74464.482406
27357.360606,-14359.995275,3108.864956,-76456.330700
27357.363170,-1924.535449,4885.359217,-75077.358804
27357.365735,7550.100608,5477.523971,-74004.825107
27357.368300,2812.782580,9178.553681,-73545.167808
27357.370865,24426.796086,6365.771101,-76609.549800
27357.373430,4589.276840,8438.347739,-74617.701505
27357.375995,5329.482782,4145.153275,-76456.330700
27357.378560,2960.823768,6957.935855,-75996.673402
27357.381125,-2960.823768,6069.688724,-75077.358804
27357.383690,11991.336260,5921.647536,-76609.549800
27357.386254,21910.095883,12583.501014,-75843.454302
27357.388819,8438.347739,3997.112087,-76609.549800
27357.391384,5921.647536,7402.059420,-73545.167808
27357.393949,-4293.194464,6365.771101,-74158.044206
27357.396514,5477.523971,4293.194464,-76149.892501
27357.399079,11251.130318,11103.089130,-75077.358804
27357.401644,25167.002028,6365.771101,-75690.235202
27357.404209,5181.441594,9622.677246,-73698.386908
27357.406774,10807.006753,-740.205942,-75537.016103
27357.409339,1036.288319,11103.089130,-72319.415011
27357.411903,-3997.112087,3849.070898,-76762.768900
27357.414468,14063.912898,10214.842000,-74464.482406
27357.417033,6513.812290,4145.153275,-74617.701505
27357.419598,-21021.848753,7402.059420,-73545.167808
27357.422163,-5329.482782,4589.276840,-76915.987999
27357.424728,-14063.912898,8290.306550,-73391.948708
27357.427293,-19985.560434,4737.318029,-74004.825107
27357.429858,14063.912898,6957.935855,-75690.235202
27357.432423,9326.594869,9770.718434,-75996.673402
27357.434987,-9474.636058,6957.935855,-74617.701505
27357.437552,-3849.070898,4441.235652,-75537.016103
27357.440117,-11103.089130,8882.471304,-73545.167808
27357.442682,-11251.130318,444.123565,-77375.645298
27357.445247,12139.377449,14211.954086,-73698.386908
27357.447812,-10807.006753,5477.523971,-75077.358804
27357.450377,12435.459826,3849.070898,-76609.549800
27357.452941,-4293.194464,6069.688724,-72932.291410
27357.455506,-15100.201217,5329.482782,-75843.454302
27357.458071,0.000000,4737.318029,-76915.987999
27357.460635,-7254.018232,7994.224174,-74464.482406
27357.463200,740.205942,6513.812290,-76609.549800
27357.465765,-13471.748144,3849.070898,-76609.549800
27357.468329,10955.047942,6957.935855,-75383.797003
27357.470894,6217.729913,9622.677246,-73391.948708
27357.473458,14508.036463,1480.411884,-77375.645298
27357.476023,20577.725188,11251.130318,-74770.920605
27357.478588,2220.617826,3404.947333,-75690.235202
27357.481152,7402.059420,8586.388927,-75077.358804
27357.483717,-6365.771101,2812.782580,-75383.797003
27357.486281,4441.235652,11103.089130,-73391.948708
27357.488846,26795.455100,5329.482782,-77222.426198
27357.491411,-740.205942,12731.542202,-74004.825107
27357.493975,24278.754898,-5033.400406,-77835.302597
27357.496540,-2220.617826,15396.283594,-71553.319513
27357.499104,4441.235652,-2072.576638,-79520.712692
27357.501669,-2516.700203,9918.759623,-74158.044206
27357.504234,20133.601622,8438.347739,-75537.016103
27357.506798,11251.130318,5625.565159,-76149.892501
27357.509363,8290.306550,3108.864956,-75996.673402
27357.511928,5773.606348,6513.812290,-73391.948708
27357.514492,-2072.576638,7105.977043,-76609.549800
27357.517057,6217.729913,6957.935855,-75996.673402
27357.519621,17912.983796,5921.647536,-75230.577904
27357.522186,-9474.636058,10066.800811,-73238.729609
27357.524751,-8142.265362,7254.018232,-77375.645298
27357.527315,-4885.359217,5773.606348,-74617.701505
27357.529880,-29460.196492,5625.565159,-74770.920605
27357.532444,14952.160028,4293.194464,-76762.768900
27357.535009,6809.894666,9918.759623,-76149.892501
27357.537574,-1332.370696,7846.182985,-74311.263306
27357.540138,-1628.453072,2664.741391,-76609.549800
27357.542703,-11251.130318,7846.182985,-75077.358804
27357.545267,-10955.047942,7105.977043,-75383.797003
27357.547832,-8586.388927,5625.565159,-75690.235202
27357.550397,14656.077652,11843.295072,-75230.577904
27357.552961,-7105.977043,4293.194464,-77375.645298
27357.555525,4589.276840,6069.688724,-74004.825107
27357.558089,-18653.189738,4885.359217,-73851.606007
27357.560653,-8586.388927,8142.265362,-75230.577904
27357.563217,-2664.741391,7105.977043,-76609.549800
27357.565781,4145.153275,9474.636058,-73851.606007
27357.568344,-5921.647536,3997.112087,-77069.207099
27357.570908,2516.700203,2812.782580,-75537.016103
27357.573472,11547.212695,8290.306550,-74311.263306
27357.576036,7994.224174,2664.741391,-75537.016103
27357.578600,21910.095883,7994.224174,-74004.825107
27357.581164,2072.576638,5625.565159,-74770.920605
27357.583727,10955.047942,8142.265362,-75690.235202
27357.586291,-5625.565159,4589.276840,-75843.454302
27357.588855,8290.306550,7994.224174,-73391.948708
27357.591419,18505.148550,6513.812290,-75383.797003
27357.593983,8734.430116,5921.647536,-74924.139704
27357.596547,740.205942,4145.153275,-73238.729609
27357.599110,16580.613101,5181.441594,-74158.044206
27357.601674,-5773.606348,9030.512492,-74004.825107
27357.604238,4737.318029,5773.606348,-76149.892501
27357.606802,14359.995275,7402.059420,-75383.797003
27357.609366,21465.972318,9770.718434,-75077.358804
27357.611930,4589.276840,2072.576638,-75690.235202
27357.614493,1924.535449,6661.853478,-73698.386908
27357.617057,5181.441594,5477.523971,-75843.454302
27357.619621,-1184.329507,7846.182985,-75996.673402
27357.622185,20873.807564,6513.812290,-75690.235202
27357.624749,-17764.942608,9770.718434,-72625.853210
27357.627313,2220.617826,4441.235652,-77682.083497
27357.629877,-14063.912898,8290.306550,-74770.920605
27357.632440,-22946.384202,4589.276840,-74617.701505
27357.635004,13027.624579,4885.359217,-75537.016103
27357.637568,8882.471304,10066.800811,-75843.454302
27357.640132,0.000000,7254.018232,-75230.577904
27357.642696,-3256.906145,5329.482782,-75077.358804
27357.645260,-11399.171507,7105.977043,-73851.606007
27357.647823,-14359.995275,1036.288319,-76303.111601
27357.650387,-2516.700203,14508.036463,-73085.510509
27357.652951,6661.853478,5921.647536,-76762.768900
27357.655515,5625.565159,7254.018232,-77222.426198
27357.658078,-3849.070898,2516.700203,-75383.797003
27357.660641,-10362.883188,7698.141797,-73391.948708
27357.663205,-8882.471304,5181.441594,-76609.549800
27357.665768,-444.123565,6809.894666,-75077.358804
27357.668331,-6217.729913,9326.594869,-74464.482406
27357.670895,-3256.906145,3849.070898,-76303.111601
27357.673458,4589.276840,4293.194464,-76149.892501
27357.676021,16432.571912,10658.965565,-72779.072310
27357.678584,12731.542202,740.205942,-76149.892501
27357.681148,15840.407159,9770.718434,-73698.386908
27357.683711,1924.535449,3404.947333,-76303.111601
27357.686274,6809.894666,11103.089130,-74158.044206
27357.688837,-3404.947333,1924.535449,-75996.673402
27357.691401,10214.842000,9030.512492,-73238.729609
27357.693964,25611.125593,6069.688724,-74311.263306
27357.696527,-1924.535449,5329.482782,-73851.606007
27357.699090,18209.066173,6513.812290,-73698.386908
27357.701654,2516.700203,8586.388927,-73238.729609
27357.704217,2368.659014,5181.441594,-78141.740796
27357.706780,5625.565159,7254.018232,-74924.139704
27357.709344,22650.301825,7105.977043,-75537.016103
27357.711907,13767.830521,6365.771101,-75843.454302
27357.714470,296.082377,3997.112087,-75077.358804
27357.717033,11547.212695,5921.647536,-75077.358804
27357.719597,-3404.947333,7698.141797,-75690.235202
27357.722160,12435.459826,7105.977043,-75537.016103
27357.724723,3997.112087,5921.647536,-74158.044206
27357.727286,-21762.054695,6513.812290,-74617.701505
27357.729850,-2664.741391,8438.347739,-75843.454302
27357.732413,-17172.777854,3997.112087,-75077.358804
27357.734976,3997.112087,6217.729913,-74617.701505
27357.737539,9474.636058,8734.430116,-75996.673402
27357.740103,7402.059420,8290.306550,-75230.577904
27357.742666,-8142.265362,6809.894666,-74311.263306
27357.745229,-11695.253884,6809.894666,-74770.920605
27357.747793,-14952.160028,2072.576638,-76762.768900
27357.750356,-7402.059420,6217.729913,-74924.139704
27357.752919,5181.441594,12435.459826,-72779.072310
27357.755482,6661.853478,2516.700203,-77528.864398
27357.758046,-7550.100608,7994.224174,-74464.482406
27357.760609,-3997.112087,4737.318029,-74617.701505
27357.763172,-14656.077652,6957.935855,-75230.577904
27357.765735,-3108.864956,3997.112087,-76609.549800
27357.768299,740.205942,10807.006753,-74770.920605
27357.770862,-7550.100608,5773.606348,-76915.987999
27357.773425,-2516.700203,7105.977043,-75230.577904
27357.775988,8882.471304,7994.224174,-75383.797003
27357.778552,9918.759623,3849.070898,-74924.139704
27357.781115,22058.137072,6365.771101,-72779.072310
27357.783678,-1184.329507,6661.853478,-75077.358804
27357.786242,14804.118840,5921.647536,-77069.207099
27357.788805,-8438.347739,10510.924376,-73698.386908
27357.791368,6957.935855,2812.782580,-75230.577904
27357.793931,13471.748144,10658.965565,-74311.263306
27357.796495,11103.089130,6217.729913,-74158.044206
27357.799058,-1184.329507,1776.494261,-74770.920605
27357.801621,20281.642811,9326.594869,-72625.853210
27357.804184,-11103.089130,6513.812290,-75843.454302
27357.806748,9326.594869,6513.812290,-76609.549800
27357.809311,11251.130318,7105.977043,-73851.606007
27357.811874,24722.878463,10807.006753,-75230.577904
27357.814437,3552.988522,2664.741391,-75843.454302
27357.817001,-740.205942,6365.771101,-74158.044206
27357.819564,4293.194464,6217.729913,-75690.235202
27357.822127,3256.906145,7698.141797,-76609.549800
27357.824690,10658.965565,5181.441594,-75077.358804
27357.827254,-17764.942608,8290.306550,-73851.606007
27357.829817,-6217.729913,7254.018232,-76762.768900
27357.832380,-15396.283594,6217.729913,-75077.358804
27357.834944,-14804.118840,6217.729913,-73545.167808
27357.837507,13323.706956,6217.729913,-75690.235202
27357.840070,888.247130,9030.512492,-75383.797003
27357.842633,1184.329507,5773.606348,-76609.549800
27357.845197,-1332.370696,10066.800811,-73698.386908
27357.847760,-24574.837274,888.247130,-76609.549800
27357.850323,-2220.617826,7698.141797,-75537.016103
27357.852886,-3997.112087,6957.935855,-74311.263306
27357.855450,-1036.288319,8882.471304,-74311.263306
27357.858013,6217.729913,4885.359217,-76609.549800
27357.860576,-15100.201217,6513.812290,-74004.825107
27357.863140,-3108.864956,4441.235652,-75690.235202
27357.865703,-10214.842000,5329.482782,-75383.797003
27357.868266,-2368.659014,8882.471304,-74617.701505
27357.870830,-7994.224174,5773.606348,-75537.016103
27357.873393,1628.453072,6809.894666,-75690.235202
27357.875956,18801.230927,7402.059420,-74311.263306
27357.878520,4589.276840,2664.741391,-74924.139704
27357.881083,25907.207970,6365.771101,-73545.167808
27357.883646,-6069.688724,6661.853478,-74617.701505
27357.886210,16432.571912,10807.006753,-76149.892501
27357.888773,-5181.441594,5181.441594,-75843.454302
27357.891336,11399.171507,5921.647536,-74311.263306
27357.893900,18357.107362,7846.182985,-74158.044206
27357.896463,6809.894666,3849.070898,-75383.797003
27357.899026,7994.224174,4737.318029,-74004.825107
27357.901590,3404.947333,3404.947333,-75843.454302
27357.904153,5921.647536,7846.182985,-75230.577904
27357.906716,-3997.112087,7698.141797,-76762.768900
27357.909280,28127.825796,7402.059420,-76149.892501
27357.911843,7846.182985,9030.512492,-74311.263306
27357.914406,2960.823768,740.205942,-75077.358804
27357.916970,7105.977043,8734.430116,-73851.606007
27357.919533,888.247130,5773.606348,-75996.673402
27357.922096,12731.542202,6513.812290,-77375.645298
27357.924660,592.164754,4737.318029,-74311.263306
27357.927223,-14063.912898,8142.265362,-76915.987999
27357.929786,-14656.077652,7994.224174,-75996.673402
27357.932350,-14211.954086,3108.864956,-76303.111601
27357.934913,3701.029710,5329.482782,-74311.263306
27357.937476,9770.718434,7105.977043,-75383.797003
27357.940040,-296.082377,7698.141797,-75230.577904
27357.942603,-2812.782580,9030.512492,-75230.577904
27357.945166,-4885.359217,6217.729913,-75230.577904
27357.947730,-26943.496289,2812.782580,-77528.864398
27357.950293,10510.924376,10658.965565,-74464.482406
27357.952856,-11547.212695,5625.565159,-76456.330700
27357.955420,20873.807564,8734.430116,-76303.111601
27357.957983,-15100.201217,5625.565159,-75230.577904
27357.960546,-1184.329507,7698.141797,-74464.482406
27357.963110,-13323.706956,4293.194464,-75537.016103
27357.965672,-9030.512492,7105.977043,-75690.235202
27357.968235,-2812.782580,6513.812290,-76456.330700
27357.970797,-13619.789333,5329.482782,-75537.016103
27357.973360,25907.207970,7254.018232,-75996.673402
27357.975923,-2812.782580,7105.977043,-74311.263306
27357.978485,25463.084405,592.164754,-75077.358804
27357.981048,-2812.782580,10658.965565,-71400.100414
27357.983611,4441.235652,2664.741391,-77069.207099
27357.986173,-3404.947333,11103.089130,-75537.016103
27357.988736,6809.894666,3997.112087,-75843.454302
27357.991299,10066.800811,11547.212695,-72779.072310
27357.993861,9178.553681,4441.235652,-75383.797003
27357.996424,7402.059420,2368.659014,-74924.139704
27357.998986,-740.205942,8438.347739,-72625.853210
27358.001549,11399.171507,6365.771101,-76762.768900
27358.004112,-6661.853478,9770.718434,-75996.673402
27358.006674,24130.713709,4293.194464,-75690.235202
27358.009237,14952.160028,13619.789333,-73238.729609
27358.011800,6957.935855,-1332.370696,-77069.207099
27358.014362,2072.576638,10214.842000,-71859.757712
27358.016925,6217.729913,2960.823768,-76762.768900
27358.019488,1924.535449,8586.388927,-75996.673402
27358.022050,13619.789333,3552.988522,-75690.235202
27358.024613,-20281.642811,9918.759623,-71706.538613
27358.027175,1184.329507,4737.318029,-77682.083497
27358.029738,-22058.137072,8290.306550,-74770.920605
27358.032301,-6069.688724,6365.771101,-74004.825107
27358.034863,14804.118840,7550.100608,-75077.358804
27358.037426,0.000000,7698.141797,-76762.768900
27358.039989,6957.935855,7698.141797,-75230.577904
27358.042551,-13175.665768,5773.606348,-75996.673402
27358.045114,-10807.006753,5329.482782,-75843.454302
27358.047677,-4293.194464,3256.906145,-76762.768900
27358.050239,-8142.265362,9030.512492,-72625.853210
27358.052802,6957.935855,4589.276840,-77222.426198
27358.055365,-7254.018232,9030.512492,-74924.139704
27358.057927,296.082377,3849.070898,-76303.111601
27358.060490,-16432.571912,7698.141797,-73391.948708
27358.063052,-2812.782580,3256.906145,-76915.987999
27358.065615,-10510.924376,10955.047942,-73085.510509
27358.068178,-4885.359217,3997.112087,-75996.673402
27358.070741,0.000000,8142.265362,-74311.263306
27358.073303,17320.819043,11695.253884,-74617.701505
27358.075866,18653.189738,-1036.288319,-77222.426198
27358.078428,7698.141797,10362.883188,-70787.224015
27358.080991,2812.782580,1924.535449,-76303.111601
27358.083553,-1776.494261,10955.047942,-75537.016103
27358.086116,2960.823768,4441.235652,-77069.207099
27358.088678,8882.471304,8586.388927,-73391.948708
27358.091241,21021.848753,5181.441594,-75230.577904
27358.093803,1332.370696,9326.594869,-73545.167808
27358.096366,15100.201217,1776.494261,-75690.235202
27358.098928,-6069.688724,9622.677246,-73698.386908
27358.101491,5625.565159,4293.194464,-78294.959896
27358.104053,5329.482782,7846.182985,-74617.701505
27358.106616,29164.114115,8734.430116,-75077.358804
27358.109178,592.164754,3404.947333,-75843.454302
27358.111741,6217.729913,4145.153275,-74770.920605
27358.114303,7402.059420,6217.729913,-74464.482406
27358.116866,3404.947333,6513.812290,-76762.768900
27358.119428,5033.400406,4441.235652,-75537.016103
27358.121991,-15248.242405,7994.224174,-72472.634111
27358.124553,-4589.276840,7402.059420,-76456.330700
27358.127116,-15692.365970,7105.977043,-75383.797003
27358.129678,-15396.283594,3849.070898,-75077.358804
27358.132241,14508.036463,7105.977043,-73545.167808
27358.134803,-296.082377,6513.812290,-77069.207099
27358.137366,5181.441594,9474.636058,-75996.673402
27358.139928,-9326.594869,6217.729913,-75996.673402
27358.142491,-15988.448347,5033.400406,-74924.139704
27358.145053,-14508.036463,1924.535449,-75537.016103
27358.147616,10362.883188,8586.388927,-73851.606007
27358.150178,-2072.576638,7402.059420,-75843.454302
27358.152741,3701.029710,5921.647536,-76609.549800
27358.155303,-5773.606348,7402.059420,-75077.358804
27358.157866,-14211.954086,4441.235652,-75077.358804
27358.160428,-5329.482782,5181.441594,-75537.016103
27358.162990,-11695.253884,7402.059420,-75843.454302
27358.165553,-4589.276840,6661.853478,-75230.577904
27358.168115,5625.565159,6513.812290,-75077.358804
27358.170677,27979.784608,10658.965565,-74770.920605
27358.173239,10362.883188,1776.494261,-75537.016103
27358.175800,17172.777854,7994.224174,-71706.538613
27358.178362,3404.947333,3256.906145,-77528.864398
27358.180923,-7105.977043,12435.459826,-75690.235202
27358.183485,11399.171507,2960.823768,-75843.454302
27358.186046,14656.077652,9326.594869,-71859.757712
27358.188608,12435.459826,4145.153275,-74770.920605
27358.191169,8882.471304,7994.224174,-72166.195912
27358.193731,6661.853478,444.123565,-74924.139704
27358.196292,5033.400406,11991.336260,-73238.729609
27358.198854,-5625.565159,3701.029710,-77835.302597
27358.201416,19689.478057,11399.171507,-74158.044206
27358.203977,20281.642811,5329.482782,-75843.454302
27358.206539,4441.235652,6365.771101,-73238.729609
27358.209100,2960.823768,1480.411884,-75843.454302
27358.211662,8882.471304,9770.718434,-73545.167808
27358.214223,3849.070898,4441.235652,-78448.178995
27358.216785,3849.070898,5033.400406,-75537.016103
27358.219346,-2072.576638,7698.141797,-75537.016103
27358.221908,-12287.418637,7105.977043,-76303.111601
27358.224469,-10066.800811,4885.359217,-75996.673402
27358.227031,-2664.741391,4145.153275,-73545.167808
27358.229592,11547.212695,8290.306550,-73851.606007
27358.232154,1184.329507,6365.771101,-76456.330700
27358.234716,-592.164754,10658.965565,-74617.701505
27358.237277,-3701.029710,6513.812290,-75537.016103
27358.239839,-25611.125593,1776.494261,-76303.111601
27358.242400,6069.688724,7254.018232,-74464.482406
27358.244962,-18209.066173,7994.224174,-73238.729609
27358.247523,25463.084405,5625.565159,-77375.645298
27358.250085,-20725.766376,8142.265362,-74004.825107
27358.252646,6957.935855,5625.565159,-75996.673402
27358.255208,-16876.695478,7105.977043,-73238.729609
27358.257769,-6661.853478,6513.812290,-75230.577904
27358.260331,-4885.359217,9770.718434,-74617.701505
27358.262893,-10066.800811,4737.318029,-74924.139704
27358.265454,32569.061448,10658.965565,-74464.482406
27358.268016,-7105.977043,4441.235652,-75077.358804
27358.270577,36418.132346,2812.782580,-74770.920605
27358.273138,-11991.336260,2960.823768,-75843.454302
27358.275699,12879.583391,7994.224174,-76915.987999
27358.278260,-9622.677246,8290.306550,-76456.330700
27358.280821,16284.530724,3404.947333,-74004.825107
27358.283382,20577.725188,9770.718434,-71859.757712
27358.285943,5921.647536,2960.823768,-75383.797003
27358.288504,8438.347739,4293.194464,-72166.195912
27358.291065,2516.700203,6365.771101,-74004.825107
27358.293626,-3701.029710,8882.471304,-77835.302597
27358.296187,14656.077652,7846.182985,-75537.016103
27358.298748,18061.024985,10658.965565,-74158.044206
27358.301309,14952.160028,1776.494261,-76456.330700
27358.303870,-3404.947333,7698.141797,-71859.757712
27358.306431,16728.654289,296.082377,-76303.111601
27358.308992,-6217.729913,12435.459826,-73698.386908
27358.311553,14063.912898,1776.494261,-77528.864398
27358.314114,-19541.436869,10955.047942,-72166.195912
27358.316675,-1628.453072,5625.565159,-77682.083497
27358.319237,-17320.819043,7254.018232,-75230.577904
27358.321798,-3849.070898,3701.029710,-74617.701505
27358.324359,11103.089130,6957.935855,-73851.606007
27358.326920,592.164754,7698.141797,-75537.016103
27358.329481,12879.583391,7846.182985,-74924.139704
27358.332042,-20577.725188,9918.759623,-73851.606007
27358.334603,-18209.066173,9178.553681,-74617.701505
27358.337164,1924.535449,-3701.029710,-78294.959896
27358.339725,-7698.141797,14359.995275,-71553.319513
27358.342286,11251.130318,1628.453072,-78448.178995
27358.344847,-9770.718434,11547.212695,-75383.797003
27358.347408,1776.494261,1628.453072,-77375.645298
27358.349969,-13915.871710,10362.883188,-72472.634111
27358.352530,-7846.182985,2516.700203,-77069.207099
27358.355090,-7402.059420,5033.400406,-76456.330700
27358.357651,-8438.347739,6957.935855,-75230.577904
27358.360211,25907.207970,7254.018232,-75383.797003
27358.362772,444.123565,7254.018232,-75230.577904
27358.365332,31088.649564,1184.329507,-74617.701505
27358.367893,-11843.295072,8142.265362,-71093.662214
27358.370453,15396.283594,3256.906145,-76303.111601
27358.373013,-14211.954086,11991.336260,-76456.330700
27358.375574,10658.965565,6217.729913,-74617.701505
27358.378134,17024.736666,7994.224174,-74617.701505
27358.380695,7698.141797,4885.359217,-75537.016103
27358.383255,7550.100608,1332.370696,-74311.263306
27358.385816,7254.018232,7550.100608,-74158.044206
27358.388376,2664.741391,6365.771101,-77375.645298
27358.390937,1184.329507,8734.430116,-76149.892501
27358.393497,24426.796086,8438.347739,-75230.577904
27358.396058,3256.906145,5625.565159,-74617.701505
27358.398618,7402.059420,2072.576638,-74311.263306
27358.401179,8734.430116,6365.771101,-74004.825107
27358.403739,2960.823768,7846.182985,-75077.358804
27358.406299,1480.411884,5033.400406,-78141.740796
27358.408860,-7994.224174,9326.594869,-74464.482406
27358.411420,-10214.842000,9918.759623,-76609.549800
27358.413981,-8882.471304,4441.235652,-75690.235202
27358.416541,-5033.400406,5181.441594,-73851.606007
27358.419102,12731.542202,7105.977043,-74617.701505
27358.421662,-3701.029710,7105.977043,-76149.892501
27358.424223,8438.347739,8438.347739,-74770.920605
27358.426783,-16728.654289,10362.883188,-73698.386908
27358.429344,-5625.565159,2664.741391,-75843.454302
27358.431904,-16136.489536,6069.688724,-74770.920605
27358.434465,9474.636058,5773.606348,-75383.797003
27358.437025,-6513.812290,5921.647536,-75996.673402
27358.439585,5773.606348,7105.977043,-76149.892501
27358.442146,-13027.624579,6957.935855,-74617.701505
27358.444706,-11103.089130,5921.647536,-74158.044206
27358.447267,-7698.141797,6217.729913,-74311.263306
27358.449827,-11991.336260,6365.771101,-75843.454302
27358.452388,-1776.494261,5625.565159,-75383.797003
27358.454948,20873.807564,9178.553681,-74311.263306
27358.457509,5625.565159,592.164754,-77222.426198
27358.460069,22502.260637,8142.265362,-72779.072310
27358.462629,-2664.741391,1480.411884,-75077.358804
27358.465189,1924.535449,9918.759623,-76149.892501
27358.467750,-2368.659014,5921.647536,-77528.864398
27358.470310,6661.853478,8438.347739,-74004.825107
27358.472870,21021.848753,9918.759623,-75230.577904
27358.475430,10807.006753,3997.112087,-76456.330700
27358.477991,7846.182985,592.164754,-74617.701505
27358.480551,3849.070898,10362.883188,-72779.072310
27358.483111,-1776.494261,3552.988522,-78448.178995
27358.485671,11547.212695,11695.253884,-75537.016103
27358.488232,23538.548956,4885.359217,-76149.892501
27358.490792,6069.688724,9326.594869,-74004.825107
27358.493352,5329.482782,-740.205942,-76609.549800
27358.495912,12287.418637,8734.430116,-72625.853210
27358.498473,10510.924376,2812.782580,-78294.959896
27358.501033,-16284.530724,7105.977043,-74924.139704
27358.503593,6217.729913,8142.265362,-75537.016103
27358.506153,-25907.207970,10214.842000,-75537.016103
27358.508714,2368.659014,2368.659014,-75690.235202
27358.511274,-9474.636058,6661.853478,-72472.634111
27358.513834,12731.542202,3849.070898,-75383.797003
27358.516394,-8882.471304,8438.347739,-75843.454302
27358.518955,-5921.647536,6957.935855,-76456.330700
27358.521515,-12139.377449,7698.141797,-75537.016103
27358.524075,-14063.912898,3256.906145,-75077.358804
27358.526635,1628.453072,5921.647536,-75383.797003
27358.529196,444.123565,6069.688724,-75077.358804
27358.531756,6217.729913,8438.347739,-75690.235202
27358.534316,-3849.070898,7105.977043,-75077.358804
27358.536876,-12435.459826,4589.276840,-75996.673402
27358.539437,-8586.388927,7846.182985,-74464.482406
27358.541997,-13027.624579,4293.194464,-76915.987999
27358.544557,-9030.512492,6365.771101,-75843.454302
27358.547117,12879.583391,6365.771101,-74617.701505
27358.549678,17616.901420,9326.594869,-75077.358804
27358.552238,19245.354492,1036.288319,-75537.016103
27358.554798,1924.535449,9918.759623,-71093.662214
27358.557358,1036.288319,3108.864956,-76303.111601
27358.559919,-19689.478057,13767.830521,-74924.139704
27358.562479,14508.036463,5625.565159,-76456.330700
27358.565039,20577.725188,9918.759623,-74464.482406
27358.567599,7402.059420,5921.647536,-77222.426198
27358.570159,19393.395680,2812.782580,-74464.482406
27358.572720,1480.411884,7846.182985,-74617.701505
27358.575280,6957.935855,4737.318029,-76915.987999
27358.577840,-3997.112087,8142.265362,-77682.083497
27358.580400,26795.455100,9326.594869,-75077.358804
27358.582960,5329.482782,3552.988522,-76149.892501
27358.585520,9178.553681,6217.729913,-73391.948708
27358.588081,15544.324782,3256.906145,-74924.139704
27358.590641,-296.082377,9030.512492,-74617.701505
27358.593201,1776.494261,2516.700203,-76762.768900
27358.595761,-10658.965565,11991.336260,-74311.263306
27358.598321,-4441.235652,8142.265362,-75843.454302
27358.600881,-16728.654289,6069.688724,-76609.549800
27358.603442,-444.123565,4589.276840,-74617.701505
27358.606002,7254.018232,5625.565159,-74311.263306
27358.608562,0.000000,6809.894666,-75077.358804
27358.611122,5477.523971,8438.347739,-76609.549800
27358.613682,-16876.695478,7105.977043,-76303.111601
27358.616243,-11991.336260,8142.265362,-75077.358804
27358.618803,-4737.318029,-592.164754,-76303.111601
27358.621363,148.041188,11251.130318,-72319.415011
27358.623923,-444.123565,6809.894666,-74770.920605
27358.626483,-1036.288319,8734.430116,-75230.577904
27358.629043,-14211.954086,7105.977043,-75383.797003
27358.631604,-4293.194464,5181.441594,-74004.825107
27358.634164,-15544.324782,8290.306550,-74770.920605
27358.636724,-6661.853478,3701.029710,-76456.330700
27358.639284,-2664.741391,8734.430116,-74464.482406
