#time,accel_x,accel_y,accel_z
4930.358398,2220.617826,7105.977043,-75077.358804
4930.360953,1776.494261,6365.771101,-74617.701505
4930.363508,888.247130,6513.812290,-75077.358804
4930.366063,1924.535449,6661.853478,-75230.577904
4930.368617,1628.453072,6661.853478,-75230.577904
4930.371172,1036.288319,6365.771101,-75383.797003
4930.373727,2220.617826,7402.059420,-74770.920605
4930.376282,1480.411884,6365.771101,-75077.358804
4930.378836,1924.535449,5181.441594,-75077.358804
4930.381391,888.247130,11547.212695,-73391.948708
4930.383946,2368.659014,3552.988522,-75843.454302
4930.386501,296.082377,5625.565159,-76303.111601
4930.389055,4145.153275,1184.329507,-76609.549800
4930.391610,1628.453072,-740.205942,-75843.454302
4930.394165,0.000000,-1332.370696,-76149.892501
4930.396720,2812.782580,-4589.276840,-75537.016103
4930.399275,1480.411884,-9326.594869,-75383.797003
4930.401829,-1184.329507,-1480.411884,-74770.920605
4930.404384,3404.947333,11399.171507,-75843.454302
4930.406939,6661.853478,19097.313304,-74617.701505
4930.409494,-4589.276840,15840.407159,-74464.482406
4930.412048,3849.070898,5773.606348,-73085.510509
4930.414603,3256.906145,3256.906145,-74158.044206
4930.417158,8734.430116,7550.100608,-75077.358804
4930.419713,148.041188,11547.212695,-76609.549800
4930.422267,11399.171507,10066.800811,-75690.235202
4930.424822,-9918.759623,9474.636058,-73851.606007
4930.427377,3701.029710,8142.265362,-73851.606007
4930.429774,-3404.947333,11547.212695,-73851.606007
4930.432172,6069.688724,10807.006753,-75690.235202
4930.434570,-2960.823768,9326.594869,-75383.797003
4930.436967,3256.906145,4737.318029,-75537.016103
4930.439365,-4145.153275,5181.441594,-74770.920605
4930.441762,11399.171507,8586.388927,-74311.263306
4930.444160,-11251.130318,7105.977043,-74617.701505
4930.446557,21317.931130,14804.118840,-74464.482406
4930.448955,-23982.672521,2664.741391,-75996.673402
4930.451353,7402.059420,4145.153275,-74924.139704
4930.453750,4589.276840,9030.512492,-75230.577904
4930.456148,2220.617826,11991.336260,-74924.139704
4930.458545,8734.430116,14063.912898,-74004.825107
4930.460943,-4589.276840,11547.212695,-72779.072310
4930.463340,7698.141797,11991.336260,-73851.606007
4930.465738,-4441.235652,7994.224174,-73851.606007
4930.468135,5773.606348,11843.295072,-74924.139704
4930.470533,-4441.235652,5921.647536,-74617.701505
4930.472931,5329.482782,8438.347739,-74004.825107
4930.475328,6069.688724,10066.800811,-74311.263306
4930.477726,-1184.329507,14508.036463,-73545.167808
4930.480123,11399.171507,11991.336260,-75537.016103
4930.482521,-9178.553681,8142.265362,-74004.825107
4930.484918,5329.482782,3701.029710,-75537.016103
4930.487316,-1480.411884,8290.306550,-74158.044206
4930.489714,888.247130,14804.118840,-75996.673402
4930.492111,6069.688724,-148.041188,-77528.864398
4930.494509,-6069.688724,-888.247130,-71859.757712
4930.496906,3256.906145,6809.894666,-72625.853210
4930.499304,7254.018232,9326.594869,-77528.864398
4930.501701,1332.370696,9178.553681,-76303.111601
4930.504099,3256.906145,3701.029710,-73391.948708
4930.506497,-888.247130,-1776.494261,-74770.920605
4930.508894,1332.370696,-3849.070898,-75843.454302
4930.511292,740.205942,5033.400406,-75690.235202
4930.513689,888.247130,7402.059420,-76456.330700
4930.516087,3849.070898,8586.388927,-75383.797003
4930.518484,2220.617826,4293.194464,-74464.482406
4930.520882,-1480.411884,3108.864956,-74464.482406
4930.523280,3108.864956,1036.288319,-75843.454302
4930.525739,296.082377,5033.400406,-75383.797003
4930.528198,-1036.288319,2960.823768,-75690.235202
4930.530657,-3849.070898,2220.617826,-75383.797003
4930.533117,10214.842000,296.082377,-76303.111601
4930.535576,-6217.729913,4589.276840,-75537.016103
4930.538035,5921.647536,10214.842000,-75077.358804
4930.540494,-2368.659014,6217.729913,-74464.482406
4930.542954,3256.906145,4145.153275,-77069.207099
4930.545413,-2960.823768,8438.347739,-75077.358804
4930.547872,5329.482782,4589.276840,-75690.235202
4930.550331,-6809.894666,6661.853478,-75230.577904
4930.552791,7846.182985,5033.400406,-73851.606007
4930.555250,-4589.276840,5625.565159,-74617.701505
4930.557709,6661.853478,1480.411884,-75996.673402
4930.560168,-1628.453072,-444.123565,-76609.549800
4930.562628,2516.700203,-5181.441594,-75843.454302
4930.565087,296.082377,-4589.276840,-75383.797003
4930.567546,-1332.370696,296.082377,-75230.577904
4930.570006,8586.388927,6365.771101,-75843.454302
4930.572465,-3256.906145,12731.542202,-74924.139704
4930.574924,2368.659014,8290.306550,-74770.920605
4930.577383,1776.494261,3997.112087,-75077.358804
4930.579843,7698.141797,1924.535449,-74924.139704
4930.582302,296.082377,6513.812290,-74464.482406
4930.584761,6217.729913,3108.864956,-77375.645298
4930.587220,-1184.329507,5181.441594,-76149.892501
4930.589680,-2220.617826,740.205942,-74617.701505
4930.592139,-1628.453072,11991.336260,-72319.415011
4930.594598,3108.864956,22946.384202,-73851.606007
4930.597057,2072.576638,23094.425390,-74617.701505
4930.599517,3108.864956,11399.171507,-74158.044206
4930.601976,-296.082377,5181.441594,-72932.291410
4930.604435,5329.482782,1924.535449,-75383.797003
4930.606894,-296.082377,3552.988522,-77222.426198
4930.609354,9918.759623,8882.471304,-76609.549800
4930.611813,-1184.329507,10510.924376,-74004.825107
4930.614272,-1776.494261,10807.006753,-74004.825107
4930.616732,1480.411884,11547.212695,-74158.044206
4930.619191,1332.370696,14804.118840,-74004.825107
4930.621650,-1628.453072,11251.130318,-74004.825107
4930.624151,3404.947333,8734.430116,-74617.701505
4930.626653,2960.823768,5773.606348,-75383.797003
4930.629154,-16728.654289,1776.494261,-74770.920605
4930.631656,16136.489536,8290.306550,-74464.482406
4930.634157,-6513.812290,16432.571912,-73085.510509
4930.636658,3701.029710,8882.471304,-75996.673402
4930.639160,1628.453072,7254.018232,-74617.701505
4930.641661,4737.318029,5625.565159,-74464.482406
4930.644162,-1036.288319,10658.965565,-75537.016103
4930.646664,2664.741391,13471.748144,-75996.673402
4930.649165,444.123565,12879.583391,-73391.948708
4930.651667,4885.359217,9622.677246,-73698.386908
4930.654168,740.205942,7105.977043,-73698.386908
4930.656669,-1924.535449,6365.771101,-74770.920605
4930.659171,6069.688724,9622.677246,-75690.235202
4930.661672,3404.947333,13619.789333,-75230.577904
4930.664173,1776.494261,15100.201217,-74004.825107
4930.666675,8586.388927,11399.171507,-74770.920605
4930.669176,-6217.729913,3108.864956,-74464.482406
4930.671678,2072.576638,444.123565,-75537.016103
4930.674179,-1776.494261,11695.253884,-74311.263306
4930.676680,888.247130,17320.819043,-75230.577904
4930.679182,4145.153275,9178.553681,-77375.645298
4930.681683,-2516.700203,-2072.576638,-74464.482406
4930.684185,-2368.659014,-1628.453072,-72779.072310
4930.686686,10807.006753,2664.741391,-75843.454302
4930.689187,2072.576638,7254.018232,-77375.645298
4930.691689,2368.659014,1776.494261,-76609.549800
4930.694190,-148.041188,-444.123565,-74617.701505
4930.696691,740.205942,-3404.947333,-75230.577904
4930.699193,-1776.494261,5181.441594,-74924.139704
4930.701694,4885.359217,10066.800811,-76762.768900
4930.704196,1184.329507,11843.295072,-74924.139704
4930.706697,2812.782580,5921.647536,-75077.358804
4930.709198,2072.576638,-740.205942,-75077.358804
4930.711700,-3552.988522,-2220.617826,-75996.673402
4930.714201,2368.659014,3256.906145,-76762.768900
4930.716702,1924.535449,5181.441594,-77222.426198
4930.719204,5921.647536,5033.400406,-76303.111601
4930.721705,-4589.276840,3404.947333,-75383.797003
4930.724232,12287.418637,4885.359217,-74004.825107
4930.726759,-4589.276840,6365.771101,-73391.948708
4930.729286,6217.729913,7105.977043,-74004.825107
4930.731813,10214.842000,10510.924376,-75537.016103
4930.734341,-1776.494261,6661.853478,-75230.577904
4930.736868,3849.070898,3256.906145,-74770.920605
4930.739395,-3108.864956,1480.411884,-75383.797003
4930.741922,7846.182985,888.247130,-75537.016103
4930.744449,444.123565,4885.359217,-75230.577904
4930.746976,3997.112087,-3997.112087,-77528.864398
4930.749503,-740.205942,-4441.235652,-75843.454302
4930.752030,888.247130,-3997.112087,-75996.673402
4930.754557,-592.164754,6957.935855,-75383.797003
4930.757084,3108.864956,10362.883188,-75690.235202
4930.759611,-1332.370696,14952.160028,-74004.825107
4930.762138,3256.906145,4589.276840,-74924.139704
4930.764665,-148.041188,444.123565,-74004.825107
4930.767192,7105.977043,2220.617826,-74464.482406
4930.769719,-1924.535449,4293.194464,-75383.797003
4930.772246,11399.171507,7402.059420,-75996.673402
4930.774774,-6365.771101,-3404.947333,-76609.549800
4930.777301,1036.288319,2664.741391,-75077.358804
4930.779828,-1332.370696,16284.530724,-73085.510509
4930.782355,4885.359217,23242.466579,-74770.920605
4930.784882,1924.535449,20429.683999,-75383.797003
4930.787409,6069.688724,7994.224174,-74311.263306
4930.789936,-5625.565159,2516.700203,-73238.729609
4930.792463,5477.523971,1184.329507,-75996.673402
4930.794990,-296.082377,7846.182985,-77528.864398
4930.797517,11399.171507,11695.253884,-75843.454302
4930.800044,-2664.741391,12731.542202,-73545.167808
4930.802571,-1480.411884,12287.418637,-74004.825107
4930.805098,3256.906145,12139.377449,-73391.948708
4930.807625,3108.864956,13619.789333,-73238.729609
4930.810152,592.164754,9178.553681,-74924.139704
4930.812679,592.164754,7846.182985,-74924.139704
4930.815207,11251.130318,6957.935855,-74617.701505
4930.817734,-7254.018232,3997.112087,-74464.482406
4930.820261,4441.235652,8586.388927,-74617.701505
4930.822788,-2368.659014,11547.212695,-73391.948708
4930.825332,6661.853478,9622.677246,-75077.358804
4930.827878,-2220.617826,9178.553681,-74004.825107
4930.830424,11399.171507,11103.089130,-74004.825107
4930.832971,-2812.782580,13767.830521,-75537.016103
4930.835517,5477.523971,8438.347739,-76149.892501
4930.838064,-2664.741391,13323.706956,-74004.825107
4930.840610,3701.029710,8438.347739,-74158.044206
4930.843157,-888.247130,10510.924376,-74311.263306
4930.845703,5477.523971,12139.377449,-75077.358804
4930.848250,1924.535449,13767.830521,-74924.139704
4930.850796,8290.306550,12583.501014,-75077.358804
4930.853342,-3108.864956,1480.411884,-75230.577904
4930.855889,3701.029710,444.123565,-74004.825107
4930.858435,-4589.276840,4737.318029,-74770.920605
4930.860982,4589.276840,15396.283594,-75843.454302
4930.863528,3552.988522,17172.777854,-76149.892501
4930.866075,592.164754,4885.359217,-74770.920605
4930.868621,148.041188,-444.123565,-73238.729609
4930.871167,3404.947333,-2368.659014,-75383.797003
4930.873714,3997.112087,3552.988522,-76456.330700
4930.876260,5329.482782,740.205942,-77375.645298
4930.878807,1332.370696,-2960.823768,-76762.768900
4930.881353,-1776.494261,-2072.576638,-74770.920605
4930.883900,-2220.617826,4145.153275,-74770.920605
4930.886446,7994.224174,11695.253884,-75843.454302
4930.888992,-148.041188,13915.871710,-74924.139704
4930.891539,4589.276840,10955.047942,-74004.825107
4930.894085,1628.453072,2220.617826,-75690.235202
4930.896632,2960.823768,-3701.029710,-76149.892501
4930.899178,-5033.400406,-2368.659014,-76456.330700
4930.901725,3997.112087,888.247130,-76456.330700
4930.904271,-1924.535449,7846.182985,-75996.673402
4930.906817,12435.459826,7994.224174,-76149.892501
4930.909364,-740.205942,6069.688724,-74617.701505
4930.911910,592.164754,1776.494261,-74004.825107
4930.914457,10362.883188,4589.276840,-74464.482406
4930.917003,-5921.647536,8438.347739,-76149.892501
4930.919550,12287.418637,4737.318029,-78601.398095
4930.922096,1332.370696,1036.288319,-74464.482406
4930.924643,1628.453072,-1332.370696,-73851.606007
4930.927202,-444.123565,592.164754,-74924.139704
4930.929761,-148.041188,-1924.535449,-75537.016103
4930.932320,592.164754,444.123565,-76303.111601
4930.934879,3108.864956,148.041188,-76915.987999
4930.937438,2812.782580,4737.318029,-75843.454302
4930.939997,-1036.288319,6217.729913,-74924.139704
4930.942556,1036.288319,11103.089130,-74617.701505
4930.945116,1776.494261,4589.276840,-75843.454302
4930.947675,4293.194464,2516.700203,-74924.139704
4930.950234,6069.688724,1332.370696,-74924.139704
4930.952793,-888.247130,3552.988522,-76149.892501
4930.955352,8290.306550,4589.276840,-76456.330700
4930.957911,-6957.935855,-592.164754,-75690.235202
4930.960470,-296.082377,6365.771101,-74464.482406
4930.963030,-1776.494261,16876.695478,-74158.044206
4930.965589,6809.894666,21910.095883,-75537.016103
4930.968148,-740.205942,18801.230927,-75383.797003
4930.970707,5773.606348,7105.977043,-73391.948708
4930.973266,-4737.318029,2516.700203,-73545.167808
4930.975825,7994.224174,1628.453072,-75843.454302
4930.978384,592.164754,7550.100608,-76609.549800
4930.980944,5329.482782,10362.883188,-76303.111601
4930.983503,2368.659014,12435.459826,-74311.263306
4930.986062,-3552.988522,14063.912898,-74158.044206
4930.988621,5477.523971,14211.954086,-73545.167808
4930.991180,-6957.935855,12731.542202,-73545.167808
4930.993739,0.000000,8142.265362,-75077.358804
4930.996298,5773.606348,7994.224174,-73391.948708
4930.998857,10214.842000,10066.800811,-74770.920605
4931.001417,-4885.359217,6069.688724,-75843.454302
4931.003976,-740.205942,8142.265362,-74770.920605
4931.006535,8586.388927,6957.935855,-73545.167808
4931.009094,-148.041188,8142.265362,-74158.044206
4931.011653,2368.659014,13471.748144,-75077.358804
4931.014212,-148.041188,12583.501014,-74004.825107
4931.016771,2516.700203,12287.418637,-73698.386908
4931.019331,2220.617826,11547.212695,-75077.358804
4931.021890,-1628.453072,7550.100608,-74924.139704
4931.024449,5625.565159,10362.883188,-75690.235202
4931.027008,3404.947333,14508.036463,-74158.044206
4931.029574,1184.329507,13323.706956,-74004.825107
4931.032140,9474.636058,10066.800811,-74464.482406
4931.034706,-9178.553681,1628.453072,-75383.797003
4931.037272,5477.523971,-148.041188,-75077.358804
4931.039838,-1776.494261,10362.883188,-74311.263306
4931.042404,1480.411884,19097.313304,-75537.016103
4931.044971,5773.606348,14952.160028,-76456.330700
4931.047537,-5181.441594,2812.782580,-74770.920605
4931.050103,2812.782580,-592.164754,-73391.948708
4931.052669,2516.700203,1480.411884,-75537.016103
4931.055235,7105.977043,1332.370696,-77988.521696
4931.057801,2368.659014,-444.123565,-77682.083497
4931.060367,3256.906145,-5181.441594,-76915.987999
4931.062933,-4737.318029,-2368.659014,-74311.263306
4931.065499,-1184.329507,5921.647536,-74311.263306
4931.068065,2664.741391,13619.789333,-76303.111601
4931.070631,3552.988522,13471.748144,-76149.892501
4931.073197,3404.947333,9030.512492,-74464.482406
4931.075764,148.041188,740.205942,-74617.701505
4931.078330,0.000000,-4441.235652,-76303.111601
4931.080896,3997.112087,-2220.617826,-77069.207099
4931.083462,9622.677246,1628.453072,-75996.673402
4931.086028,2072.576638,7105.977043,-74617.701505
4931.088594,-5329.482782,6365.771101,-75383.797003
4931.091160,592.164754,3404.947333,-75077.358804
4931.093726,6365.771101,3256.906145,-73391.948708
4931.096292,-3404.947333,7402.059420,-74464.482406
4931.098858,3701.029710,8438.347739,-77988.521696
4931.101424,-740.205942,4145.153275,-77988.521696
4931.103990,2516.700203,-2664.741391,-73698.386908
4931.106556,-740.205942,-3404.947333,-74617.701505
4931.109123,-2664.741391,-7994.224174,-77222.426198
4931.111689,7698.141797,3404.947333,-76303.111601
4931.114255,-296.082377,3404.947333,-77528.864398
4931.116821,3552.988522,9622.677246,-76609.549800
4931.119387,-444.123565,6809.894666,-74924.139704
4931.121953,444.123565,6809.894666,-73545.167808
4931.124519,4589.276840,-148.041188,-75843.454302
4931.127085,5477.523971,888.247130,-75383.797003
4931.129651,4293.194464,5773.606348,-75230.577904
4931.132223,2664.741391,2368.659014,-77835.302597
4931.134795,2960.823768,5921.647536,-75843.454302
4931.137366,-6365.771101,-1184.329507,-75383.797003
4931.139938,1332.370696,8734.430116,-72779.072310
4931.142509,-1036.288319,20725.766376,-74311.263306
4931.145081,2368.659014,23538.548956,-75383.797003
4931.147653,2368.659014,12583.501014,-75383.797003
4931.150224,3108.864956,3256.906145,-72472.634111
4931.152796,-2664.741391,-296.082377,-74311.263306
4931.155368,4441.235652,3997.112087,-76303.111601
4931.157939,3404.947333,9178.553681,-76609.549800
4931.160511,1776.494261,12287.418637,-75383.797003
4931.163083,4441.235652,12435.459826,-73545.167808
4931.165654,-7402.059420,15248.242405,-72625.853210
4931.168226,2664.741391,14211.954086,-75077.358804
4931.170798,-444.123565,10214.842000,-76149.892501
4931.173369,5921.647536,4737.318029,-76762.768900
4931.175941,-5329.482782,5329.482782,-75537.016103
4931.178513,6957.935855,10066.800811,-76149.892501
4931.181084,-3256.906145,7994.224174,-74770.920605
4931.183656,11695.253884,7550.100608,-73085.510509
4931.186228,2516.700203,7402.059420,-73851.606007
4931.188799,2812.782580,12731.542202,-74617.701505
4931.191371,444.123565,13767.830521,-75230.577904
4931.193942,2368.659014,13175.665768,-73391.948708
4931.196514,-1184.329507,11103.089130,-72932.291410
4931.199086,2072.576638,9326.594869,-73698.386908
4931.201657,1036.288319,12731.542202,-73698.386908
4931.204229,4293.194464,15988.448347,-74004.825107
4931.206801,3997.112087,13323.706956,-74617.701505
4931.209372,-1332.370696,4885.359217,-74770.920605
4931.211944,1924.535449,1776.494261,-74158.044206
4931.214516,-2072.576638,-1036.288319,-74924.139704
4931.217087,2516.700203,14359.995275,-74311.263306
4931.219659,2072.576638,18949.272115,-75690.235202
4931.222231,5773.606348,10362.883188,-76609.549800
4931.224802,-4885.359217,2664.741391,-74617.701505
4931.227374,1776.494261,-148.041188,-74464.482406
4931.229946,7254.018232,3108.864956,-76456.330700
4931.232517,6069.688724,-592.164754,-77988.521696
4931.235013,1036.288319,-5033.400406,-77375.645298
4931.237508,2516.700203,-2664.741391,-75230.577904
4931.240004,-1480.411884,-2516.700203,-75383.797003
4931.242500,-740.205942,7994.224174,-74924.139704
4931.244995,3997.112087,13323.706956,-75383.797003
4931.247491,1036.288319,12583.501014,-74924.139704
4931.249987,2220.617826,5625.565159,-74770.920605
4931.252482,-3256.906145,-1184.329507,-74924.139704
4931.254978,9326.594869,-2812.782580,-76456.330700
4931.257474,3108.864956,-1480.411884,-75996.673402
4931.259969,-1776.494261,888.247130,-77682.083497
4931.262465,4885.359217,9622.677246,-75690.235202
4931.264960,0.000000,7105.977043,-75843.454302
4931.267456,8142.265362,5625.565159,-73698.386908
4931.269952,-7846.182985,5773.606348,-72932.291410
4931.272447,8586.388927,5921.647536,-76609.549800
4931.274943,-592.164754,4293.194464,-77222.426198
4931.277439,6513.812290,592.164754,-75690.235202
4931.279934,-3404.947333,-4589.276840,-74617.701505
4931.282430,1036.288319,-7698.141797,-74617.701505
4931.284925,2072.576638,444.123565,-75077.358804
4931.287421,1036.288319,7105.977043,-75843.454302
4931.289917,2664.741391,11103.089130,-75383.797003
4931.292412,-1184.329507,9770.718434,-74004.825107
4931.294908,0.000000,888.247130,-74924.139704
4931.297404,4293.194464,148.041188,-74770.920605
4931.299899,4737.318029,148.041188,-75537.016103
4931.302395,-148.041188,7698.141797,-75690.235202
4931.304890,9770.718434,5181.441594,-77222.426198
4931.307386,-5329.482782,3701.029710,-76303.111601
4931.309882,1036.288319,2516.700203,-74770.920605
4931.312377,-2960.823768,16876.695478,-72932.291410
4931.314873,5477.523971,23686.590144,-74464.482406
4931.317369,3701.029710,21910.095883,-73698.386908
4931.319864,2368.659014,8586.388927,-74004.825107
4931.322360,-740.205942,-296.082377,-74004.825107
4931.324856,1036.288319,1184.329507,-75230.577904
4931.327351,3997.112087,5329.482782,-75843.454302
4931.329847,7550.100608,13915.871710,-75077.358804
4931.332342,2960.823768,12731.542202,-74158.044206
4931.334863,2220.617826,12731.542202,-72779.072310
4931.337384,2368.659014,13175.665768,-72472.634111
4931.339905,1184.329507,13175.665768,-74004.825107
4931.342425,4293.194464,7698.141797,-75077.358804
4931.344946,-6069.688724,3997.112087,-75843.454302
4931.347467,6513.812290,7254.018232,-76915.987999
4931.349988,2812.782580,9918.759623,-75077.358804
4931.352508,7698.141797,6217.729913,-73545.167808
4931.355029,-3552.988522,4885.359217,-74158.044206
4931.357550,-4737.318029,13767.830521,-72779.072310
4931.360071,4589.276840,13175.665768,-75996.673402
4931.362592,2812.782580,14063.912898,-75537.016103
4931.365112,-1184.329507,10955.047942,-73391.948708
4931.367633,4885.359217,9918.759623,-72932.291410
4931.370154,1480.411884,14656.077652,-75077.358804
4931.372675,4589.276840,17320.819043,-74617.701505
4931.375195,5329.482782,11399.171507,-75230.577904
4931.377716,-4145.153275,3256.906145,-75996.673402
4931.380237,3701.029710,-1480.411884,-75537.016103
4931.382758,-2516.700203,3849.070898,-74004.825107
4931.385278,2220.617826,15544.324782,-74464.482406
4931.387799,3256.906145,20281.642811,-74770.920605
4931.390320,1628.453072,4145.153275,-75230.577904
4931.392841,148.041188,-1036.288319,-74770.920605
4931.395361,3849.070898,1480.411884,-74924.139704
4931.397882,4737.318029,2072.576638,-76762.768900
4931.400403,4293.194464,-740.205942,-77375.645298
4931.402924,2516.700203,-6957.935855,-76609.549800
4931.405444,-3108.864956,-2812.782580,-74770.920605
4931.407965,1776.494261,740.205942,-75230.577904
4931.410486,-888.247130,10955.047942,-75843.454302
4931.413007,4589.276840,14804.118840,-75230.577904
4931.415527,1776.494261,9030.512492,-75077.358804
4931.418048,7994.224174,2812.782580,-74770.920605
4931.420569,148.041188,-2368.659014,-74924.139704
4931.423090,6957.935855,-1924.535449,-75996.673402
4931.425610,-296.082377,-1184.329507,-76609.549800
4931.428131,-148.041188,5773.606348,-75077.358804
4931.430652,4441.235652,7846.182985,-75383.797003
4931.433173,-1036.288319,2516.700203,-75383.797003
4931.435641,-740.205942,3701.029710,-74924.139704
4931.438109,148.041188,6069.688724,-74770.920605
4931.440578,5033.400406,6365.771101,-76303.111601
4931.443046,4293.194464,3997.112087,-77375.645298
4931.445514,-1628.453072,-4293.194464,-77069.207099
4931.447983,3552.988522,-8438.347739,-76149.892501
4931.450451,-3108.864956,-148.041188,-74617.701505
4931.452919,8734.430116,10214.842000,-75690.235202
4931.455388,-740.205942,12287.418637,-75383.797003
4931.457856,1924.535449,9474.636058,-75843.454302
4931.460324,296.082377,-2516.700203,-76456.330700
4931.462793,3552.988522,-3256.906145,-74617.701505
4931.465261,5329.482782,1480.411884,-74770.920605
4931.467729,444.123565,7402.059420,-76149.892501
4931.470198,9030.512492,8438.347739,-75537.016103
4931.472666,-2072.576638,-1184.329507,-75077.358804
4931.475134,-4145.153275,6069.688724,-73851.606007
4931.477603,1036.288319,20281.642811,-73545.167808
4931.480071,4441.235652,24130.713709,-75537.016103
4931.482539,3997.112087,18357.107362,-75383.797003
4931.485008,5181.441594,4737.318029,-74004.825107
4931.487476,-3552.988522,-1776.494261,-74158.044206
4931.489944,5033.400406,0.000000,-76303.111601
4931.492413,1036.288319,7994.224174,-77222.426198
4931.494881,9178.553681,15544.324782,-74924.139704
4931.497349,2516.700203,13471.748144,-74464.482406
4931.499818,1628.453072,12731.542202,-71553.319513
4931.502286,-3997.112087,13175.665768,-72012.976812
4931.504754,3404.947333,7254.018232,-75690.235202
4931.507223,2368.659014,7402.059420,-74770.920605
4931.509691,-1184.329507,4885.359217,-74464.482406
4931.512159,27979.784608,3701.029710,-77988.521696
4931.514628,-19393.395680,9770.718434,-72472.634111
4931.517096,10066.800811,2664.741391,-73391.948708
4931.519564,-1036.288319,15544.324782,-72472.634111
4931.522033,9326.594869,12139.377449,-75843.454302
4931.524501,-5477.523971,18061.024985,-75383.797003
4931.526969,3849.070898,9770.718434,-74311.263306
4931.529438,-2960.823768,8882.471304,-74464.482406
4931.531906,1628.453072,13027.624579,-73085.510509
4931.534407,5181.441594,14063.912898,-74004.825107
4931.536907,5181.441594,10510.924376,-75690.235202
4931.539408,-1924.535449,3701.029710,-75690.235202
4931.541908,296.082377,-1036.288319,-75230.577904
4931.544409,2368.659014,9918.759623,-74464.482406
4931.546909,-2812.782580,19837.519246,-74617.701505
4931.549410,11991.336260,15100.201217,-75077.358804
4931.551910,-7402.059420,5773.606348,-73238.729609
4931.554411,1332.370696,-1036.288319,-73851.606007
4931.556911,5477.523971,1184.329507,-75383.797003
4931.559412,4293.194464,2072.576638,-76915.987999
4931.561912,1924.535449,888.247130,-76762.768900
4931.564413,1776.494261,-4145.153275,-75383.797003
4931.566913,-1036.288319,-1480.411884,-74770.920605
4931.569414,148.041188,5773.606348,-74617.701505
4931.571914,3849.070898,11399.171507,-76609.549800
4931.574415,1924.535449,12435.459826,-74311.263306
4931.576915,1184.329507,9474.636058,-72932.291410
4931.579416,-444.123565,0.000000,-74617.701505
4931.581916,1924.535449,-1924.535449,-75996.673402
4931.584417,6957.935855,296.082377,-75690.235202
4931.586917,-8586.388927,3552.988522,-76762.768900
4931.589418,10510.924376,8438.347739,-76149.892501
4931.591918,-4293.194464,3552.988522,-75537.016103
4931.594419,7698.141797,4589.276840,-73851.606007
4931.596919,-6513.812290,3404.947333,-73545.167808
4931.599420,2812.782580,4737.318029,-74770.920605
4931.601920,592.164754,3108.864956,-76915.987999
4931.604421,4737.318029,-4293.194464,-78448.178995
4931.606921,-148.041188,-5921.647536,-75690.235202
4931.609422,444.123565,-1924.535449,-75843.454302
4931.611922,3849.070898,5477.523971,-76762.768900
4931.614447,1332.370696,12287.418637,-75230.577904
4931.616972,-1628.453072,9622.677246,-75537.016103
4931.619497,4885.359217,1036.288319,-75230.577904
4931.622022,1184.329507,-3108.864956,-75383.797003
4931.624546,3108.864956,4885.359217,-75230.577904
4931.627071,1924.535449,5773.606348,-76149.892501
4931.629596,4737.318029,7550.100608,-76149.892501
4931.632121,-7402.059420,-592.164754,-75690.235202
4931.634646,0.000000,8882.471304,-73851.606007
4931.637171,-296.082377,21910.095883,-73851.606007
4931.639696,3849.070898,22798.343014,-74770.920605
4931.642221,4441.235652,18653.189738,-74770.920605
4931.644746,0.000000,4145.153275,-72779.072310
4931.647270,-1628.453072,740.205942,-74158.044206
4931.649795,3849.070898,2220.617826,-75690.235202
4931.652320,1036.288319,7698.141797,-76456.330700
4931.654845,8142.265362,13471.748144,-75077.358804
4931.657370,-7846.182985,14508.036463,-74464.482406
4931.659895,6661.853478,14508.036463,-74158.044206
4931.662420,-148.041188,14211.954086,-74311.263306
4931.664945,7105.977043,6513.812290,-74770.920605
4931.667469,-2220.617826,6809.894666,-75230.577904
4931.669994,4885.359217,5773.606348,-76456.330700
4931.672519,8438.347739,6809.894666,-77069.207099
4931.675044,-6809.894666,8586.388927,-75537.016103
4931.677569,9918.759623,7254.018232,-74924.139704
4931.680094,-4145.153275,13175.665768,-74464.482406
4931.682619,9622.677246,15248.242405,-76149.892501
4931.685144,-1776.494261,15396.283594,-75383.797003
4931.687669,3552.988522,10362.883188,-73698.386908
4931.690193,1332.370696,11399.171507,-73238.729609
4931.692718,7550.100608,11991.336260,-74004.825107
4931.695243,-740.205942,8438.347739,-74617.701505
4931.697768,3404.947333,5477.523971,-75077.358804
4931.700293,148.041188,1924.535449,-76303.111601
4931.702818,-592.164754,9030.512492,-75383.797003
4931.705343,-2664.741391,17024.736666,-74004.825107
4931.707868,9030.512492,13619.789333,-75077.358804
4931.710392,-7105.977043,4885.359217,-73391.948708
4931.712917,5033.400406,-1184.329507,-73851.606007
4931.715462,2664.741391,740.205942,-75690.235202
4931.718006,6069.688724,0.000000,-76915.987999
4931.720550,2072.576638,-2664.741391,-76456.330700
4931.723095,2812.782580,-5329.482782,-76149.892501
4931.725639,-1628.453072,592.164754,-74158.044206
4931.728183,1184.329507,7402.059420,-75230.577904
4931.730728,0.000000,11695.253884,-75996.673402
4931.733272,6217.729913,13175.665768,-73698.386908
4931.735816,2960.823768,5773.606348,-74311.263306
4931.738361,4885.359217,296.082377,-73698.386908
4931.740905,-3404.947333,-2664.741391,-74924.139704
4931.743449,1628.453072,-444.123565,-75230.577904
4931.745994,4589.276840,5773.606348,-75996.673402
4931.748538,4737.318029,4885.359217,-77222.426198
4931.751082,5329.482782,9030.512492,-74311.263306
4931.753627,-8586.388927,2812.782580,-72472.634111
4931.756171,4737.318029,2516.700203,-74770.920605
4931.758715,1332.370696,1776.494261,-77222.426198
4931.761260,3701.029710,444.123565,-78754.617194
4931.763804,5033.400406,-3404.947333,-77835.302597
4931.766348,-2368.659014,-3997.112087,-76303.111601
4931.768893,6513.812290,740.205942,-75077.358804
4931.771437,-3849.070898,8290.306550,-75077.358804
4931.773981,2220.617826,10807.006753,-75690.235202
4931.776526,444.123565,1776.494261,-76303.111601
4931.779070,4441.235652,-888.247130,-75690.235202
4931.781614,4589.276840,592.164754,-75383.797003
4931.784159,1480.411884,4589.276840,-75690.235202
4931.786703,5477.523971,8734.430116,-75690.235202
4931.789247,-2368.659014,-148.041188,-75996.673402
4931.791792,-2516.700203,7550.100608,-73545.167808
4931.794336,-148.041188,18949.272115,-73698.386908
4931.796880,5033.400406,22058.137072,-75383.797003
4931.799425,1628.453072,18801.230927,-74311.263306
4931.801969,3552.988522,6217.729913,-74158.044206
4931.804513,-2664.741391,2960.823768,-73545.167808
4931.807058,3997.112087,888.247130,-75230.577904
4931.809602,2220.617826,9030.512492,-76609.549800
4931.812146,7994.224174,9474.636058,-75383.797003
4931.814691,-5033.400406,13619.789333,-73698.386908
4931.817190,8290.306550,15544.324782,-74617.701505
4931.819689,740.205942,13915.871710,-73545.167808
4931.822188,-6809.894666,7105.977043,-77069.207099
4931.824687,6069.688724,9770.718434,-74617.701505
4931.827187,6957.935855,6957.935855,-75077.358804
4931.829686,1332.370696,3849.070898,-77528.864398
4931.832185,-1332.370696,7550.100608,-75843.454302
4931.834684,1924.535449,10510.924376,-72932.291410
4931.837183,-1480.411884,10955.047942,-76303.111601
4931.839683,4145.153275,21317.931130,-75690.235202
4931.842182,-740.205942,14656.077652,-74924.139704
4931.844681,8438.347739,14508.036463,-74311.263306
4931.847180,-3997.112087,10807.006753,-74464.482406
4931.849680,8438.347739,6217.729913,-74770.920605
4931.852179,-7846.182985,2220.617826,-75537.016103
4931.854678,6661.853478,3256.906145,-76303.111601
4931.857177,-2220.617826,7254.018232,-75383.797003
4931.859676,3108.864956,14211.954086,-75383.797003
4931.862176,2072.576638,20429.683999,-74004.825107
4931.864675,2220.617826,4293.194464,-75383.797003
4931.867174,-4145.153275,2664.741391,-74004.825107
4931.869673,7846.182985,-888.247130,-75690.235202
4931.872172,2960.823768,296.082377,-76915.987999
4931.874672,8290.306550,-5329.482782,-79061.055394
4931.877171,-1924.535449,-3997.112087,-75996.673402
4931.879670,1628.453072,-1776.494261,-74311.263306
4931.882169,-1036.288319,2368.659014,-74770.920605
4931.884668,-592.164754,11695.253884,-76303.111601
4931.887168,7402.059420,12287.418637,-75537.016103
4931.889667,-1332.370696,7994.224174,-74004.825107
4931.892166,0.000000,-592.164754,-75996.673402
4931.894665,-1036.288319,-2072.576638,-76915.987999
4931.897164,592.164754,-1332.370696,-76303.111601
4931.899664,2960.823768,3256.906145,-75690.235202
4931.902163,6365.771101,11991.336260,-74770.920605
4931.904662,-7698.141797,1184.329507,-76609.549800
4931.907161,13323.706956,2516.700203,-74158.044206
4931.909660,-2220.617826,1332.370696,-75230.577904
4931.912160,2072.576638,1924.535449,-75537.016103
4931.914659,2220.617826,296.082377,-76303.111601
4931.917184,1036.288319,-2664.741391,-75690.235202
4931.919708,2072.576638,-1480.411884,-74617.701505
4931.922233,1036.288319,-1628.453072,-75996.673402
4931.924758,592.164754,9178.553681,-74924.139704
4931.927283,444.123565,6513.812290,-75996.673402
4931.929808,6513.812290,3849.070898,-75230.577904
4931.932332,4145.153275,-148.041188,-75537.016103
4931.934857,2960.823768,5329.482782,-75537.016103
4931.937382,5773.606348,3997.112087,-76609.549800
4931.939907,-1924.535449,5921.647536,-74770.920605
4931.942432,-888.247130,-148.041188,-75843.454302
4931.944956,-1776.494261,9030.512492,-74464.482406
4931.947481,2516.700203,20429.683999,-74770.920605
4931.950006,4145.153275,21762.054695,-75383.797003
4931.952531,-1332.370696,14359.995275,-74004.825107
4931.955056,4589.276840,3997.112087,-72932.291410
4931.957580,-7402.059420,3256.906145,-74617.701505
4931.960105,10066.800811,3701.029710,-76762.768900
4931.962630,-1480.411884,9622.677246,-75537.016103
4931.965155,9178.553681,12731.542202,-74770.920605
4931.967679,-8734.430116,13323.706956,-75383.797003
4931.970204,296.082377,14804.118840,-74617.701505
4931.972729,3108.864956,11695.253884,-75383.797003
4931.975254,-6513.812290,2368.659014,-76609.549800
4931.977779,6957.935855,11547.212695,-73851.606007
4931.980303,14952.160028,12583.501014,-76456.330700
4931.982828,-7846.182985,5033.400406,-77528.864398
4931.985353,2516.700203,11695.253884,-74004.825107
4931.987878,-5033.400406,12731.542202,-73851.606007
4931.990403,7846.182985,13767.830521,-76762.768900
4931.992927,1184.329507,20429.683999,-75077.358804
4931.995452,5033.400406,15248.242405,-74464.482406
4931.997977,740.205942,13471.748144,-74004.825107
4932.000502,5329.482782,3108.864956,-75230.577904
4932.003026,-3849.070898,592.164754,-75383.797003
4932.005551,3108.864956,-1628.453072,-75690.235202
4932.008076,-888.247130,11843.295072,-74617.701505
4932.010601,2516.700203,16580.613101,-75537.016103
4932.013126,3256.906145,20133.601622,-73851.606007
4932.015650,-1036.288319,3404.947333,-75230.577904
4932.018196,-1480.411884,2368.659014,-73391.948708
4932.020742,7994.224174,0.000000,-76149.892501
4932.023287,2960.823768,-444.123565,-77528.864398
4932.025833,7402.059420,-5033.400406,-78448.178995
4932.028378,444.123565,-9030.512492,-76149.892501
4932.030924,-2812.782580,-2368.659014,-74770.920605
4932.033469,2368.659014,3701.029710,-74924.139704
4932.036015,-1480.411884,11547.212695,-76303.111601
4932.038560,7254.018232,14211.954086,-75537.016103
4932.041106,-1332.370696,5625.565159,-73851.606007
4932.043651,3997.112087,-740.205942,-75077.358804
4932.046197,-2960.823768,-1480.411884,-74924.139704
4932.048743,9770.718434,444.123565,-75996.673402
4932.051288,-3404.947333,7105.977043,-76149.892501
4932.053834,4589.276840,7846.182985,-77375.645298
4932.056379,-1628.453072,4885.359217,-75230.577904
4932.058925,4885.359217,2368.659014,-73851.606007
4932.061470,1036.288319,1332.370696,-75843.454302
4932.064016,3701.029710,3108.864956,-76762.768900
4932.066561,296.082377,-296.082377,-77375.645298
4932.069107,6661.853478,-2960.823768,-76456.330700
4932.071652,-148.041188,-3849.070898,-75690.235202
4932.074198,1924.535449,3997.112087,-74158.044206
4932.076744,-3256.906145,4293.194464,-75996.673402
4932.079289,7698.141797,6069.688724,-75230.577904
4932.081835,1628.453072,1628.453072,-75230.577904
4932.084380,5033.400406,7846.182985,-74770.920605
4932.086926,3849.070898,4145.153275,-76303.111601
4932.089471,-1036.288319,4737.318029,-74617.701505
4932.092017,-2664.741391,296.082377,-74924.139704
4932.094562,-888.247130,6513.812290,-74311.263306
4932.097108,1036.288319,20429.683999,-74464.482406
4932.099653,6661.853478,19541.436869,-75996.673402
4932.102199,-888.247130,15544.324782,-73698.386908
4932.104745,4589.276840,5625.565159,-72932.291410
4932.107290,-7254.018232,4885.359217,-74004.825107
4932.109836,13027.624579,2368.659014,-76609.549800
4932.112381,-1480.411884,9178.553681,-76303.111601
4932.114927,12287.418637,7846.182985,-75537.016103
4932.117472,-2220.617826,12879.583391,-73085.510509
4932.120033,8586.388927,13767.830521,-73238.729609
4932.122593,3552.988522,13471.748144,-74464.482406
4932.125154,-6217.729913,8586.388927,-74770.920605
4932.127715,1924.535449,6661.853478,-74924.139704
4932.130275,2812.782580,8142.265362,-75077.358804
4932.132836,8438.347739,6809.894666,-75230.577904
4932.135396,-4441.235652,9622.677246,-73391.948708
4932.137957,-1184.329507,13323.706956,-72319.415011
4932.140517,4885.359217,13619.789333,-73698.386908
4932.143078,5477.523971,19689.478057,-75077.358804
4932.145638,888.247130,16580.613101,-74617.701505
4932.148199,8882.471304,14063.912898,-74770.920605
4932.150760,-6365.771101,1332.370696,-75843.454302
4932.153320,2960.823768,-592.164754,-74617.701505
4932.155881,-2516.700203,-148.041188,-75077.358804
4932.158441,3256.906145,13175.665768,-74770.920605
4932.161002,740.205942,18505.148550,-75690.235202
4932.163562,3701.029710,8290.306550,-76303.111601
4932.166123,-5921.647536,4885.359217,-73238.729609
4932.168683,4885.359217,-592.164754,-74311.263306
4932.171244,3404.947333,2960.823768,-76609.549800
4932.173805,6809.894666,-1480.411884,-77682.083497
4932.176365,2368.659014,-3701.029710,-76762.768900
4932.178926,1776.494261,-8882.471304,-75230.577904
4932.181486,-4589.276840,-1036.288319,-74770.920605
4932.184047,-148.041188,10362.883188,-74924.139704
4932.186607,4293.194464,12879.583391,-75996.673402
4932.189168,3404.947333,11991.336260,-75077.358804
4932.191728,4441.235652,3404.947333,-74311.263306
4932.194289,4145.153275,-2664.741391,-75843.454302
4932.196850,-3701.029710,-5033.400406,-76915.987999
4932.199410,888.247130,4293.194464,-76303.111601
4932.201971,-3552.988522,6513.812290,-77528.864398
4932.204531,-5477.523971,6513.812290,-75537.016103
4932.207092,5033.400406,2664.741391,-73698.386908
4932.209652,-592.164754,740.205942,-74311.263306
4932.212213,9326.594869,444.123565,-75996.673402
4932.214774,-4885.359217,1480.411884,-77222.426198
4932.217334,12583.501014,1924.535449,-77375.645298
4932.219895,-5625.565159,-1036.288319,-76762.768900
4932.222414,3997.112087,2072.576638,-75077.358804
4932.224934,-3997.112087,296.082377,-75077.358804
4932.227453,6809.894666,4293.194464,-74924.139704
4932.229973,5329.482782,4885.359217,-75690.235202
4932.232492,3849.070898,11547.212695,-75383.797003
4932.235011,5033.400406,6661.853478,-76609.549800
4932.237531,-1036.288319,3849.070898,-74770.920605
4932.240050,-1776.494261,-1184.329507,-74770.920605
4932.242570,-1036.288319,7105.977043,-74158.044206
4932.245089,2368.659014,20577.725188,-75077.358804
4932.247609,2960.823768,20725.766376,-75690.235202
4932.250128,1480.411884,14656.077652,-74464.482406
4932.252648,888.247130,6365.771101,-73545.167808
4932.255167,-2664.741391,7550.100608,-72779.072310
4932.257687,9178.553681,5921.647536,-75843.454302
4932.260206,-2368.659014,9622.677246,-76149.892501
4932.262726,5181.441594,7994.224174,-75843.454302
4932.265245,740.205942,11843.295072,-72625.853210
4932.267765,-1184.329507,12731.542202,-72779.072310
4932.270284,8438.347739,14656.077652,-74311.263306
4932.272804,-11991.336260,7994.224174,-75843.454302
4932.275323,24130.713709,7402.059420,-75230.577904
4932.277843,-10066.800811,7698.141797,-75996.673402
4932.280362,9770.718434,4441.235652,-78294.959896
4932.282882,-9178.553681,15100.201217,-72932.291410
4932.285401,8438.347739,11399.171507,-72625.853210
4932.287921,888.247130,20873.807564,-73391.948708
4932.290440,2960.823768,17468.860231,-75690.235202
4932.292960,4441.235652,18209.066173,-74464.482406
4932.295479,3404.947333,9178.553681,-74924.139704
4932.297998,-1480.411884,1480.411884,-75383.797003
4932.300518,740.205942,-4441.235652,-75537.016103
4932.303037,-296.082377,7698.141797,-74311.263306
4932.305557,1184.329507,14508.036463,-75230.577904
4932.308076,4737.318029,15692.365970,-75537.016103
4932.310596,-5033.400406,6661.853478,-73698.386908
4932.313115,2072.576638,1480.411884,-73085.510509
4932.315635,4441.235652,1924.535449,-75383.797003
4932.318154,6069.688724,888.247130,-77069.207099
4932.320674,5773.606348,-3552.988522,-77682.083497
4932.323164,-296.082377,-8882.471304,-76609.549800
4932.325654,-740.205942,-3701.029710,-75230.577904
4932.328144,1184.329507,3256.906145,-75230.577904
4932.330634,2072.576638,11991.336260,-75843.454302
4932.333124,6809.894666,11843.295072,-75843.454302
4932.335614,3108.864956,9326.594869,-72625.853210
4932.338104,3404.947333,444.123565,-74158.044206
4932.340594,-3552.988522,-2368.659014,-74464.482406
4932.343084,2960.823768,-1924.535449,-75230.577904
4932.345574,-148.041188,9770.718434,-75077.358804
4932.348064,-1332.370696,5181.441594,-78448.178995
4932.350554,4293.194464,2220.617826,-75690.235202
4932.353044,-4737.318029,0.000000,-73851.606007
4932.355534,5625.565159,-148.041188,-76303.111601
4932.358024,-1776.494261,2516.700203,-77222.426198
4932.360514,7550.100608,-740.205942,-78141.740796
4932.363004,-592.164754,296.082377,-76303.111601
4932.365494,888.247130,-3256.906145,-75843.454302
4932.367984,-1776.494261,0.000000,-75843.454302
4932.370474,4145.153275,1628.453072,-75690.235202
4932.372964,7105.977043,9326.594869,-74311.263306
4932.375454,2072.576638,12435.459826,-75537.016103
4932.377945,6513.812290,9474.636058,-75537.016103
4932.380435,-4293.194464,-888.247130,-74770.920605
4932.382925,-1184.329507,3552.988522,-73698.386908
4932.385415,592.164754,11695.253884,-74004.825107
4932.387905,1924.535449,21021.848753,-75690.235202
4932.390395,5181.441594,19837.519246,-75230.577904
4932.392885,-2220.617826,10955.047942,-74617.701505
4932.395375,3997.112087,6513.812290,-72932.291410
4932.397865,-6217.729913,7846.182985,-73851.606007
4932.400355,6513.812290,9770.718434,-76303.111601
4932.402845,4441.235652,10362.883188,-75690.235202
4932.405335,7846.182985,6661.853478,-74617.701505
4932.407825,-1776.494261,10955.047942,-72166.195912
4932.410315,-6217.729913,11399.171507,-73391.948708
4932.412805,9622.677246,13915.871710,-75230.577904
4932.415295,1332.370696,8142.265362,-74617.701505
4932.417785,-1628.453072,5329.482782,-75843.454302
4932.420275,10510.924376,8734.430116,-76149.892501
4932.422794,-4441.235652,8734.430116,-74617.701505
4932.425312,2812.782580,14063.912898,-74004.825107
4932.427831,1924.535449,17320.819043,-73698.386908
4932.430350,1036.288319,19541.436869,-73698.386908
4932.432868,8290.306550,15988.448347,-74004.825107
4932.435387,-1628.453072,12583.501014,-74004.825107
4932.437906,1184.329507,296.082377,-74924.139704
4932.440424,1776.494261,-1184.329507,-74617.701505
4932.442943,888.247130,9918.759623,-74464.482406
4932.445462,-1036.288319,15100.201217,-74924.139704
4932.447981,6365.771101,16284.530724,-74464.482406
4932.450499,-3552.988522,3404.947333,-74924.139704
4932.453018,-444.123565,1776.494261,-73545.167808
4932.455537,6069.688724,1924.535449,-75843.454302
4932.458055,3849.070898,1776.494261,-77528.864398
4932.460574,7550.100608,-3256.906145,-77069.207099
4932.463093,-2220.617826,-10214.842000,-76609.549800
4932.465611,-1184.329507,-3701.029710,-75843.454302
4932.468130,296.082377,1924.535449,-75537.016103
4932.470649,0.000000,10955.047942,-76303.111601
4932.473167,6513.812290,11399.171507,-75996.673402
4932.475686,6513.812290,7105.977043,-74770.920605
4932.478205,3701.029710,888.247130,-74464.482406
4932.480723,-6217.729913,-296.082377,-74770.920605
4932.483242,4145.153275,444.123565,-76149.892501
4932.485761,4441.235652,8290.306550,-74924.139704
4932.488279,1184.329507,6957.935855,-76303.111601
4932.490798,7105.977043,0.000000,-75843.454302
4932.493317,-6513.812290,1332.370696,-73545.167808
4932.495835,5625.565159,-1332.370696,-74464.482406
4932.498354,-2072.576638,4441.235652,-74924.139704
4932.500873,5625.565159,148.041188,-76303.111601
4932.503391,1480.411884,2072.576638,-74617.701505
4932.505910,-2664.741391,-4885.359217,-75996.673402
4932.508429,6365.771101,-1924.535449,-75996.673402
4932.510947,-592.164754,296.082377,-74617.701505
4932.513466,7846.182985,12879.583391,-74617.701505
4932.515985,2220.617826,12287.418637,-76149.892501
4932.518503,2516.700203,7550.100608,-75843.454302
4932.521022,-6957.935855,-740.205942,-74617.701505
4932.523564,-1480.411884,6069.688724,-73698.386908
4932.526105,2960.823768,19541.436869,-74311.263306
4932.528646,5921.647536,19245.354492,-75843.454302
4932.531188,1924.535449,16432.571912,-74924.139704
4932.533729,1480.411884,5477.523971,-73851.606007
4932.536271,-2812.782580,5181.441594,-73698.386908
4932.538812,4589.276840,5921.647536,-74924.139704
4932.541354,3404.947333,11991.336260,-75537.016103
4932.543895,7254.018232,12435.459826,-76149.892501
4932.546436,-1036.288319,7698.141797,-74770.920605
4932.548978,-3552.988522,13471.748144,-71859.757712
4932.551519,5477.523971,14211.954086,-73851.606007
4932.554061,1480.411884,7550.100608,-75996.673402
4932.556602,-5477.523971,8586.388927,-75077.358804
4932.559144,13323.706956,8438.347739,-75077.358804
4932.561685,-1036.288319,7698.141797,-75537.016103
4932.564226,-444.123565,14656.077652,-75077.358804
4932.566768,4885.359217,15692.365970,-74770.920605
4932.569309,-1480.411884,21465.972318,-73545.167808
4932.571851,9770.718434,17912.983796,-74158.044206
4932.574392,-5033.400406,11843.295072,-73698.386908
4932.576934,3108.864956,1480.411884,-75383.797003
4932.579475,-1776.494261,-740.205942,-75230.577904
4932.582017,-148.041188,6069.688724,-74924.139704
4932.584558,-2072.576638,15544.324782,-75690.235202
4932.587099,7254.018232,14804.118840,-75537.016103
4932.589641,-5625.565159,3701.029710,-74158.044206
4932.592182,3256.906145,-740.205942,-73698.386908
4932.594724,1628.453072,4145.153275,-75996.673402
4932.597265,7402.059420,2664.741391,-77682.083497
4932.599807,4737.318029,-1332.370696,-76456.330700
4932.602348,-592.164754,-8438.347739,-76609.549800
4932.604889,2516.700203,-4589.276840,-76303.111601
4932.607431,-1924.535449,1628.453072,-75383.797003
4932.609972,3108.864956,12139.377449,-75537.016103
4932.612514,2664.741391,12139.377449,-75383.797003
4932.615055,1332.370696,6217.729913,-74770.920605
4932.617597,4293.194464,1036.288319,-75230.577904
4932.620138,-2220.617826,-2664.741391,-76149.892501
4932.622679,2664.741391,1480.411884,-76303.111601
4932.625238,-444.123565,7402.059420,-75843.454302
4932.627796,7994.224174,6217.729913,-76915.987999
4932.630355,-1776.494261,-740.205942,-74924.139704
4932.632914,296.082377,740.205942,-72625.853210
4932.635472,-1036.288319,-1332.370696,-74770.920605
4932.638031,4145.153275,1924.535449,-76149.892501
4932.640589,888.247130,2664.741391,-76456.330700
4932.643148,3997.112087,-1776.494261,-76303.111601
4932.645706,-1924.535449,-5329.482782,-75383.797003
4932.648265,3552.988522,-4441.235652,-75077.358804
4932.650823,4589.276840,8290.306550,-73851.606007
4932.653382,4441.235652,15544.324782,-75690.235202
4932.655940,7105.977043,16136.489536,-74770.920605
4932.658499,-4737.318029,1480.411884,-74924.139704
4932.661057,-3849.070898,1332.370696,-73698.386908
4932.663616,1924.535449,8142.265362,-73545.167808
4932.666174,1036.288319,20577.725188,-75996.673402
4932.668733,7550.100608,18801.230927,-74924.139704
4932.671291,-1332.370696,10214.842000,-73698.386908
4932.673850,3256.906145,3997.112087,-74004.825107
4932.676408,-7402.059420,6513.812290,-74311.263306
4932.678967,10066.800811,9622.677246,-76609.549800
4932.681526,-1332.370696,14656.077652,-75690.235202
4932.684084,11103.089130,11695.253884,-75996.673402
4932.686643,-9030.512492,9918.759623,-73545.167808
4932.689201,5181.441594,9918.759623,-74311.263306
4932.691760,-296.082377,8586.388927,-75996.673402
4932.694318,-5773.606348,9770.718434,-75537.016103
4932.696877,13323.706956,10066.800811,-75843.454302
4932.699435,-1332.370696,9918.759623,-74924.139704
4932.701994,-1924.535449,10807.006753,-73391.948708
4932.704552,5773.606348,13175.665768,-73851.606007
4932.707111,592.164754,20429.683999,-74004.825107
4932.709669,9326.594869,19097.313304,-75230.577904
4932.712228,-5921.647536,12139.377449,-74924.139704
4932.714786,5181.441594,2812.782580,-75996.673402
4932.717345,-1036.288319,-1776.494261,-75690.235202
4932.719903,-740.205942,7550.100608,-74770.920605
4932.722462,1924.535449,15692.365970,-75690.235202
4932.725021,6069.688724,17320.819043,-75077.358804
4932.727546,-3552.988522,3701.029710,-73238.729609
4932.730072,1332.370696,-1036.288319,-73698.386908
4932.732597,4145.153275,2960.823768,-75690.235202
4932.735123,2960.823768,2664.741391,-76609.549800
4932.737649,7698.141797,-888.247130,-76762.768900
4932.740174,-2220.617826,-6957.935855,-75690.235202
4932.742700,296.082377,-5625.565159,-74770.920605
4932.745226,-592.164754,-148.041188,-75383.797003
4932.747751,-2664.741391,11547.212695,-75996.673402
4932.750277,3552.988522,11547.212695,-76149.892501
4932.752802,1924.535449,6513.812290,-75383.797003
4932.755328,-3108.864956,2812.782580,-75077.358804
4932.757854,9030.512492,-2664.741391,-76762.768900
4932.760379,-1924.535449,4589.276840,-75843.454302
4932.762905,2220.617826,6365.771101,-76456.330700
4932.765431,6957.935855,6513.812290,-76915.987999
4932.767956,3701.029710,592.164754,-74311.263306
4932.770482,3404.947333,-4589.276840,-74311.263306
4932.773008,-444.123565,1184.329507,-74924.139704
4932.775533,3552.988522,-740.205942,-77069.207099
4932.778059,3552.988522,6217.729913,-73238.729609
4932.780584,-2516.700203,-3849.070898,-76303.111601
4932.783110,4293.194464,-5033.400406,-74770.920605
4932.785636,1480.411884,-592.164754,-74158.044206
4932.788161,2220.617826,13027.624579,-75383.797003
4932.790687,9474.636058,16284.530724,-75690.235202
4932.793213,-2516.700203,8882.471304,-75230.577904
4932.795738,-2960.823768,740.205942,-75077.358804
4932.798264,444.123565,4293.194464,-73391.948708
4932.800790,-2664.741391,19097.313304,-75077.358804
4932.803315,11991.336260,19837.519246,-75690.235202
4932.805841,-1628.453072,15544.324782,-74004.825107
4932.808366,5033.400406,5033.400406,-73545.167808
4932.810892,-6661.853478,4589.276840,-74617.701505
4932.813418,5329.482782,6513.812290,-75843.454302
4932.815943,-740.205942,11843.295072,-76303.111601
4932.818469,6513.812290,14211.954086,-76609.549800
4932.820995,1628.453072,9770.718434,-73851.606007
4932.823520,0.000000,8882.471304,-73698.386908
4932.826046,-296.082377,6365.771101,-75537.016103
4932.828592,-2516.700203,9178.553681,-75843.454302
4932.831138,9178.553681,10807.006753,-75537.016103
4932.833684,-1332.370696,12287.418637,-74924.139704
4932.836230,888.247130,12287.418637,-74924.139704
4932.838777,6069.688724,11251.130318,-75230.577904
4932.841323,4145.153275,18061.024985,-73085.510509
4932.843869,5477.523971,17468.860231,-74924.139704
4932.846415,-4145.153275,11399.171507,-76149.892501
4932.848961,5033.400406,4737.318029,-75690.235202
4932.851507,148.041188,444.123565,-75383.797003
4932.854053,888.247130,8142.265362,-75077.358804
4932.856599,296.082377,15692.365970,-74464.482406
4932.859145,3997.112087,14359.995275,-75077.358804
4932.861691,-296.082377,4737.318029,-73391.948708
4932.864237,888.247130,-888.247130,-74004.825107
4932.866783,6365.771101,2516.700203,-76609.549800
4932.869329,1628.453072,740.205942,-76609.549800
4932.871876,7402.059420,-592.164754,-75996.673402
4932.874422,-4293.194464,-5921.647536,-76303.111601
4932.876968,2072.576638,-2516.700203,-74770.920605
4932.879514,444.123565,0.000000,-74924.139704
4932.882060,-3108.864956,10214.842000,-76456.330700
4932.884606,10066.800811,8438.347739,-75843.454302
4932.887152,1924.535449,6513.812290,-74464.482406
4932.889698,1184.329507,-1036.288319,-77069.207099
4932.892244,-888.247130,1184.329507,-74924.139704
4932.894790,6809.894666,5477.523971,-75537.016103
4932.897336,2664.741391,9918.759623,-75690.235202
4932.899882,4441.235652,3404.947333,-76149.892501
4932.902429,2368.659014,-740.205942,-75077.358804
4932.904975,1480.411884,-2960.823768,-76456.330700
4932.907521,1628.453072,-1184.329507,-76303.111601
4932.910067,-740.205942,4293.194464,-76762.768900
4932.912613,5181.441594,-296.082377,-76915.987999
4932.915159,444.123565,-3552.988522,-75077.358804
4932.917705,740.205942,-5773.606348,-74617.701505
4932.920251,7698.141797,4145.153275,-74004.825107
4932.922797,-296.082377,15396.283594,-75537.016103
4932.925343,7402.059420,13767.830521,-76456.330700
4932.927889,-6069.688724,2664.741391,-74617.701505
4932.930452,-296.082377,4737.318029,-72166.195912
4932.933015,-888.247130,10807.006753,-74770.920605
4932.935578,3404.947333,17320.819043,-75230.577904
4932.938141,5181.441594,19689.478057,-74311.263306
4932.940704,2072.576638,10362.883188,-74464.482406
4932.943267,-888.247130,5773.606348,-73085.510509
4932.945830,-740.205942,5329.482782,-75383.797003
4932.948393,4737.318029,10510.924376,-75996.673402
4932.950956,3849.070898,11843.295072,-75230.577904
4932.953519,8586.388927,12435.459826,-74924.139704
4932.956082,1628.453072,10214.842000,-74617.701505
4932.958644,-7698.141797,9326.594869,-73085.510509
4932.961207,12731.542202,8586.388927,-74617.701505
4932.963770,-6809.894666,9918.759623,-72625.853210
4932.966333,13471.748144,13471.748144,-74617.701505
4932.968896,-4885.359217,13767.830521,-76915.987999
4932.971459,11547.212695,9918.759623,-75383.797003
4932.974022,-3701.029710,17320.819043,-72472.634111
4932.976585,11399.171507,14063.912898,-75383.797003
4932.979148,-6661.853478,13175.665768,-75383.797003
4932.981711,6809.894666,7105.977043,-74924.139704
4932.984274,-1036.288319,1480.411884,-76149.892501
4932.986837,-3997.112087,9030.512492,-74770.920605
4932.989399,7105.977043,16432.571912,-74004.825107
4932.991962,-296.082377,12435.459826,-75230.577904
4932.994525,1776.494261,2960.823768,-74464.482406
4932.997088,-1776.494261,592.164754,-74464.482406
4932.999651,9474.636058,1628.453072,-75690.235202
4933.002214,592.164754,-1776.494261,-76303.111601
4933.004777,7402.059420,-888.247130,-76303.111601
4933.007340,-2664.741391,-4885.359217,-76609.549800
4933.009903,1776.494261,-740.205942,-74770.920605
4933.012466,592.164754,2220.617826,-75843.454302
4933.015029,444.123565,9622.677246,-75996.673402
4933.017592,3404.947333,7550.100608,-75230.577904
4933.020155,-4441.235652,5625.565159,-74924.139704
4933.022717,13471.748144,-1776.494261,-75383.797003
4933.025280,-16876.695478,-148.041188,-74770.920605
4933.027843,14804.118840,8734.430116,-76456.330700
4933.030406,-5625.565159,7105.977043,-76609.549800
4933.032982,0.000000,4589.276840,-75077.358804
4933.035558,1924.535449,2072.576638,-73238.729609
4933.038134,-3552.988522,-4589.276840,-74158.044206
4933.040710,9770.718434,-444.123565,-74924.139704
4933.043286,-6661.853478,-148.041188,-76149.892501
4933.045862,9918.759623,-296.082377,-77069.207099
4933.048438,-3256.906145,-4441.235652,-74617.701505
4933.051014,9622.677246,-148.041188,-73698.386908
4933.053590,-888.247130,10066.800811,-74311.263306
4933.056165,7105.977043,15840.407159,-74924.139704
4933.058741,592.164754,10510.924376,-75537.016103
4933.061317,-3997.112087,5181.441594,-73085.510509
4933.063893,1480.411884,6809.894666,-74004.825107
4933.066469,-148.041188,16136.489536,-74004.825107
4933.069045,7846.182985,18357.107362,-75230.577904
4933.071621,-444.123565,14063.912898,-74770.920605
4933.074197,2368.659014,7994.224174,-74770.920605
4933.076773,-888.247130,7402.059420,-73238.729609
4933.079349,3108.864956,7105.977043,-75843.454302
4933.081925,-2368.659014,13027.624579,-75690.235202
4933.084501,5921.647536,11695.253884,-75537.016103
4933.087077,2960.823768,12731.542202,-75230.577904
4933.089653,-8290.306550,11991.336260,-72779.072310
4933.092228,3404.947333,8734.430116,-74464.482406
4933.094804,-1184.329507,7105.977043,-74770.920605
4933.097380,4293.194464,17616.901420,-73851.606007
4933.099956,1628.453072,12583.501014,-76915.987999
4933.102532,7846.182985,14804.118840,-76915.987999
4933.105108,-5921.647536,13767.830521,-73238.729609
4933.107684,13767.830521,15544.324782,-72779.072310
4933.110260,-6069.688724,10658.965565,-76609.549800
4933.112836,5329.482782,9326.594869,-75537.016103
4933.115412,740.205942,4737.318029,-75230.577904
4933.117988,592.164754,9474.636058,-74770.920605
4933.120564,2072.576638,14656.077652,-74311.263306
4933.123140,-592.164754,13175.665768,-74158.044206
4933.125716,1480.411884,3108.864956,-75077.358804
4933.128291,-1776.494261,-444.123565,-74617.701505
4933.130867,10066.800811,1924.535449,-75690.235202
4933.133443,1184.329507,-1480.411884,-77069.207099
4933.135986,7254.018232,-444.123565,-75537.016103
4933.138528,-3997.112087,-5625.565159,-75843.454302
4933.141070,444.123565,444.123565,-74617.701505
4933.143612,2072.576638,3108.864956,-75383.797003
4933.146154,3256.906145,7846.182985,-75537.016103
4933.148697,444.123565,7105.977043,-75383.797003
4933.151239,-444.123565,7105.977043,-73851.606007
4933.153781,5033.400406,2960.823768,-74924.139704
4933.156323,-6661.853478,1332.370696,-75537.016103
4933.158866,8882.471304,11547.212695,-73698.386908
4933.161408,-4737.318029,6069.688724,-75383.797003
4933.163950,444.123565,2664.741391,-76303.111601
4933.166492,5033.400406,-888.247130,-74158.044206
4933.169035,-1776.494261,-4737.318029,-75383.797003
4933.171577,5625.565159,-1332.370696,-76149.892501
4933.174119,-5181.441594,-1776.494261,-77835.302597
4933.176661,9622.677246,-3256.906145,-77835.302597
4933.179204,-5033.400406,-3997.112087,-75383.797003
4933.181746,11991.336260,3997.112087,-73238.729609
4933.184288,-4145.153275,11991.336260,-74617.701505
4933.186830,9918.759623,17172.777854,-74158.044206
4933.189372,-4589.276840,7402.059420,-75077.358804
4933.191915,-2368.659014,6365.771101,-74158.044206
4933.194457,1036.288319,9178.553681,-75383.797003
4933.196999,1776.494261,16580.613101,-74924.139704
4933.199541,7846.182985,17024.736666,-74924.139704
4933.202084,-444.123565,9622.677246,-74004.825107
4933.204626,4737.318029,6661.853478,-73851.606007
4933.207168,-6069.688724,6217.729913,-74158.044206
4933.209710,10658.965565,9326.594869,-75383.797003
4933.212253,3997.112087,11991.336260,-74924.139704
4933.214795,4885.359217,13471.748144,-74464.482406
4933.217337,1480.411884,13175.665768,-74158.044206
4933.219879,1036.288319,8734.430116,-75383.797003
4933.222421,1776.494261,9622.677246,-72472.634111
4933.224964,-444.123565,12287.418637,-72472.634111
4933.227506,4885.359217,13175.665768,-75077.358804
4933.230048,2516.700203,12879.583391,-74464.482406
4933.232590,3256.906145,13915.871710,-72166.195912
4933.235133,1776.494261,14656.077652,-72472.634111
4933.237692,-1332.370696,12435.459826,-73698.386908
4933.240251,2516.700203,11843.295072,-74617.701505
4933.242810,1628.453072,3997.112087,-75077.358804
4933.245369,592.164754,10955.047942,-73698.386908
4933.247928,888.247130,12583.501014,-75077.358804
4933.250487,1184.329507,12139.377449,-74924.139704
4933.253047,-2220.617826,3404.947333,-74464.482406
4933.255606,1924.535449,444.123565,-74617.701505
4933.258165,5921.647536,888.247130,-76456.330700
4933.260724,3108.864956,-1184.329507,-77069.207099
4933.263283,6217.729913,-2368.659014,-76456.330700
4933.265842,-3701.029710,-5921.647536,-76303.111601
4933.268401,592.164754,2812.782580,-74004.825107
4933.270961,-444.123565,1924.535449,-75843.454302
4933.273520,-1776.494261,6957.935855,-77222.426198
4933.276079,7254.018232,5921.647536,-76609.549800
4933.278638,7994.224174,2664.741391,-75230.577904
4933.281197,-11991.336260,3108.864956,-75230.577904
4933.283756,17320.819043,-148.041188,-76303.111601
4933.286315,4293.194464,8142.265362,-75996.673402
4933.288875,-1332.370696,5329.482782,-75537.016103
4933.291434,8882.471304,5033.400406,-75690.235202
4933.293993,-2812.782580,-5921.647536,-75077.358804
4933.296552,6217.729913,-3404.947333,-74617.701505
4933.299111,-7846.182985,-1184.329507,-75230.577904
4933.301670,7402.059420,-2220.617826,-76609.549800
4933.304229,-2960.823768,-2368.659014,-76609.549800
4933.306789,6217.729913,-2812.782580,-75996.673402
4933.309348,1776.494261,5625.565159,-74004.825107
4933.311907,2960.823768,11695.253884,-75077.358804
4933.314466,2812.782580,12287.418637,-75690.235202
4933.317025,-5477.523971,4145.153275,-75383.797003
4933.319584,888.247130,8586.388927,-74464.482406
4933.322143,-888.247130,12583.501014,-75383.797003
4933.324702,6513.812290,15692.365970,-76149.892501
4933.327262,-740.205942,15988.448347,-73238.729609
4933.329821,1776.494261,8586.388927,-73545.167808
4933.332380,1184.329507,6809.894666,-74617.701505
4933.334939,-3256.906145,8290.306550,-75230.577904
4933.337498,12731.542202,9178.553681,-75843.454302
4933.340070,-2072.576638,13175.665768,-74311.263306
4933.342642,10214.842000,10066.800811,-73545.167808
4933.345214,-4885.359217,8142.265362,-75230.577904
4933.347786,-7402.059420,5477.523971,-76303.111601
4933.350358,6809.894666,10214.842000,-73851.606007
4933.352930,-3552.988522,11991.336260,-73545.167808
4933.355502,11695.253884,16580.613101,-76149.892501
4933.358074,-8734.430116,12139.377449,-76149.892501
4933.360646,13619.789333,13915.871710,-74464.482406
4933.363219,-7550.100608,14359.995275,-73085.510509
4933.365791,7254.018232,9918.759623,-75537.016103
4933.368363,-148.041188,5625.565159,-76915.987999
4933.370935,1776.494261,10214.842000,-74617.701505
4933.373507,1480.411884,11843.295072,-75690.235202
4933.376079,888.247130,12731.542202,-74617.701505
4933.378651,-1184.329507,4885.359217,-75843.454302
4933.381223,0.000000,888.247130,-73851.606007
4933.383795,2516.700203,-1036.288319,-75383.797003
4933.386367,7254.018232,1480.411884,-76762.768900
4933.388939,4737.318029,-740.205942,-76456.330700
4933.391511,148.041188,-4293.194464,-75230.577904
4933.394083,-2960.823768,-2072.576638,-74311.263306
4933.396655,3404.947333,3108.864956,-75383.797003
4933.399227,1184.329507,6069.688724,-76149.892501
4933.401799,7994.224174,6217.729913,-75383.797003
4933.404371,4737.318029,3701.029710,-74770.920605
4933.406943,-2516.700203,1628.453072,-73851.606007
4933.409515,888.247130,2812.782580,-75230.577904
4933.412087,-2220.617826,5625.565159,-75843.454302
4933.414659,7550.100608,6809.894666,-76609.549800
4933.417231,3404.947333,3701.029710,-76303.111601
4933.419803,1036.288319,-3256.906145,-75996.673402
4933.422375,3404.947333,-2960.823768,-75843.454302
4933.424947,-2220.617826,-2072.576638,-76149.892501
4933.427519,3108.864956,-148.041188,-76609.549800
4933.430091,2220.617826,-4441.235652,-77375.645298
4933.432663,6365.771101,-3552.988522,-75537.016103
4933.435235,3701.029710,4885.359217,-74617.701505
4933.437808,148.041188,11991.336260,-74464.482406
4933.440380,3108.864956,13027.624579,-75383.797003
4933.442962,-3256.906145,5625.565159,-74617.701505
4933.445544,-2072.576638,7994.224174,-73391.948708
4933.448126,3997.112087,11399.171507,-74617.701505
4933.450709,0.000000,15840.407159,-76303.111601
4933.453291,2368.659014,16432.571912,-73698.386908
4933.455873,148.041188,9030.512492,-73545.167808
4933.458455,2960.823768,6513.812290,-73851.606007
4933.461037,-5181.441594,6365.771101,-74770.920605
4933.463620,5477.523971,11103.089130,-76762.768900
4933.466202,1924.535449,12139.377449,-76456.330700
4933.468784,-148.041188,14656.077652,-74464.482406
4933.471366,9474.636058,12583.501014,-74158.044206
4933.473949,-4293.194464,7550.100608,-74311.263306
4933.476531,4293.194464,10066.800811,-73851.606007
4933.479113,-4589.276840,15544.324782,-73391.948708
4933.481695,7402.059420,16284.530724,-75996.673402
4933.484278,444.123565,15100.201217,-76149.892501
4933.486860,7402.059420,13915.871710,-73698.386908
4933.489442,-4589.276840,11103.089130,-73545.167808
4933.492024,6217.729913,11695.253884,-73698.386908
4933.494607,0.000000,6661.853478,-76609.549800
4933.497189,592.164754,11991.336260,-75230.577904
4933.499771,1036.288319,13767.830521,-75230.577904
4933.502353,1036.288319,11103.089130,-74924.139704
4933.504936,-888.247130,592.164754,-75077.358804
4933.507518,296.082377,-888.247130,-74311.263306
4933.510100,6069.688724,1924.535449,-75230.577904
4933.512682,4737.318029,-296.082377,-77069.207099
4933.515265,6957.935855,-888.247130,-76303.111601
4933.517847,-5477.523971,-4441.235652,-74770.920605
4933.520429,3849.070898,592.164754,-73698.386908
4933.523011,-1628.453072,2960.823768,-75996.673402
4933.525593,-296.082377,7105.977043,-76762.768900
4933.528176,5921.647536,5329.482782,-76456.330700
4933.530758,-1184.329507,6513.812290,-73851.606007
4933.533340,7254.018232,1332.370696,-75537.016103
4933.535922,5773.606348,4885.359217,-75383.797003
4933.538505,-1184.329507,9918.759623,-75996.673402
4933.541087,6217.729913,3701.029710,-76609.549800
4933.543669,-1628.453072,888.247130,-75077.358804
4933.546258,2664.741391,-6217.729913,-75230.577904
4933.548848,740.205942,296.082377,-75077.358804
4933.551437,-740.205942,-3997.112087,-77069.207099
4933.554026,3997.112087,-1036.288319,-76915.987999
4933.556615,-888.247130,-4441.235652,-75996.673402
4933.559204,8882.471304,2812.782580,-74770.920605
4933.561794,-148.041188,10362.883188,-75077.358804
4933.564383,7254.018232,15396.283594,-75690.235202
4933.566972,-5033.400406,6069.688724,-75537.016103
4933.569561,-148.041188,9918.759623,-73851.606007
4933.572150,-2072.576638,10807.006753,-75077.358804
4933.574739,4737.318029,17320.819043,-75537.016103
4933.577329,2368.659014,16876.695478,-74004.825107
4933.579918,0.000000,10658.965565,-73238.729609
4933.582507,4145.153275,7105.977043,-73238.729609
4933.585096,-3552.988522,5773.606348,-74617.701505
4933.587685,2812.782580,11103.089130,-76915.987999
4933.590275,2072.576638,8882.471304,-76303.111601
4933.592864,6809.894666,14804.118840,-75230.577904
4933.595453,2664.741391,12435.459826,-74158.044206
4933.598042,9474.636058,9474.636058,-74770.920605
4933.600631,-3404.947333,8882.471304,-74311.263306
4933.603221,8882.471304,14359.995275,-74311.263306
4933.605810,-3108.864956,16136.489536,-75690.235202
4933.608399,9030.512492,17024.736666,-73545.167808
4933.610988,-2664.741391,15100.201217,-71706.538613
4933.613577,3701.029710,8290.306550,-74311.263306
4933.616166,-1480.411884,10658.965565,-73851.606007
4933.618756,1036.288319,8882.471304,-75230.577904
4933.621345,592.164754,16136.489536,-74464.482406
4933.623934,3701.029710,13915.871710,-75996.673402
4933.626523,-296.082377,9918.759623,-75077.358804
4933.629112,296.082377,-888.247130,-74158.044206
4933.631702,-148.041188,-2220.617826,-74464.482406
4933.634291,10807.006753,2812.782580,-76762.768900
4933.636880,148.041188,-592.164754,-76456.330700
4933.639469,9326.594869,-1480.411884,-75843.454302
4933.642058,-5773.606348,-5477.523971,-75077.358804
4933.644648,3404.947333,1628.453072,-74004.825107
4933.647237,-1036.288319,3997.112087,-74617.701505
4933.649831,2072.576638,7994.224174,-75996.673402
4933.652426,1924.535449,7105.977043,-75690.235202
4933.655021,10658.965565,2664.741391,-73545.167808
4933.657615,-3997.112087,-148.041188,-74924.139704
4933.660210,10214.842000,6365.771101,-74617.701505
4933.662805,-8586.388927,5625.565159,-76303.111601
4933.665399,8142.265362,3997.112087,-76915.987999
4933.667994,-592.164754,-1332.370696,-76762.768900
4933.670589,1184.329507,-4293.194464,-76456.330700
4933.673183,4145.153275,-4885.359217,-75843.454302
4933.675778,-6809.894666,-1184.329507,-75383.797003
4933.678373,9326.594869,-3404.947333,-76915.987999
4933.680967,1776.494261,0.000000,-75690.235202
4933.683562,5181.441594,8438.347739,-74311.263306
4933.686156,3997.112087,10807.006753,-75537.016103
4933.688751,-148.041188,10362.883188,-76609.549800
4933.691346,-3256.906145,5329.482782,-74770.920605
4933.693940,1184.329507,10658.965565,-74158.044206
4933.696535,1776.494261,17616.901420,-75383.797003
4933.699130,7105.977043,14656.077652,-75230.577904
4933.701724,444.123565,14508.036463,-73391.948708
4933.704319,2220.617826,7994.224174,-73545.167808
4933.706914,-2960.823768,7994.224174,-74311.263306
4933.709508,3552.988522,6365.771101,-76149.892501
4933.712103,5033.400406,12435.459826,-75077.358804
4933.714698,9326.594869,6957.935855,-77222.426198
4933.717292,-6365.771101,13323.706956,-73238.729609
4933.719887,7698.141797,7105.977043,-73238.729609
4933.722482,-2664.741391,10362.883188,-73085.510509
4933.725076,6365.771101,9030.512492,-74924.139704
4933.727671,-1776.494261,17024.736666,-75383.797003
4933.730265,6661.853478,16728.654289,-75077.358804
4933.732864,2960.823768,16432.571912,-73391.948708
4933.735463,1628.453072,10955.047942,-72932.291410
4933.738062,-1332.370696,9030.512492,-73545.167808
4933.740660,2220.617826,8586.388927,-74924.139704
4933.743259,592.164754,12879.583391,-75077.358804
4933.745858,1184.329507,15396.283594,-74770.920605
4933.748457,1776.494261,11103.089130,-76149.892501
4933.751055,-1776.494261,0.000000,-75230.577904
4933.753654,1036.288319,-5329.482782,-74464.482406
4933.756253,4589.276840,2072.576638,-75996.673402
4933.758851,3552.988522,-444.123565,-77528.864398
4933.761450,6217.729913,148.041188,-77069.207099
4933.764049,-2220.617826,-4441.235652,-75537.016103
4933.766648,0.000000,740.205942,-74004.825107
4933.769246,-740.205942,1480.411884,-75383.797003
4933.771845,-2368.659014,9770.718434,-76762.768900
4933.774444,4441.235652,5181.441594,-76915.987999
4933.777043,-4737.318029,3256.906145,-73545.167808
4933.779641,8586.388927,592.164754,-74770.920605
4933.782240,-10955.047942,2368.659014,-75690.235202
4933.784839,11843.295072,9178.553681,-76303.111601
4933.787438,2516.700203,5181.441594,-75690.235202
4933.790036,592.164754,-3256.906145,-76303.111601
4933.792635,1776.494261,-2072.576638,-75996.673402
4933.795234,-2664.741391,-7254.018232,-77069.207099
4933.797832,5033.400406,-2368.659014,-76149.892501
4933.800431,-740.205942,-5625.565159,-76456.330700
4933.803030,9326.594869,2516.700203,-74617.701505
4933.805629,1480.411884,7994.224174,-74617.701505
4933.808227,3552.988522,13915.871710,-74617.701505
4933.810826,-444.123565,8142.265362,-75996.673402
4933.813425,-4145.153275,8142.265362,-74311.263306
4933.816024,3256.906145,10955.047942,-74158.044206
4933.818622,-1480.411884,19097.313304,-75383.797003
4933.821221,8142.265362,14952.160028,-75690.235202
4933.823820,-1776.494261,13767.830521,-73391.948708
4933.826419,1776.494261,7698.141797,-72932.291410
4933.829017,-4589.276840,7994.224174,-74617.701505
4933.831616,3108.864956,6957.935855,-76456.330700
4933.834215,6957.935855,12879.583391,-75077.358804
4933.836815,-3849.070898,11843.295072,-74617.701505
4933.839416,11695.253884,11103.089130,-74158.044206
4933.842017,-11695.253884,12435.459826,-71246.881314
4933.844618,8882.471304,6957.935855,-73851.606007
4933.847218,-6365.771101,14656.077652,-73545.167808
4933.849819,6809.894666,14952.160028,-76456.330700
4933.852420,888.247130,16876.695478,-76762.768900
4933.855021,4293.194464,13175.665768,-75077.358804
4933.857622,-2368.659014,10658.965565,-73698.386908
4933.860222,6365.771101,9178.553681,-74464.482406
4933.862823,-1184.329507,10510.924376,-75077.358804
4933.865424,2812.782580,15988.448347,-75383.797003
4933.868025,444.123565,17320.819043,-75383.797003
4933.870626,3701.029710,3849.070898,-75996.673402
4933.873226,-3997.112087,-3849.070898,-74770.920605
4933.875827,2368.659014,-3552.988522,-74004.825107
4933.878428,10510.924376,740.205942,-76149.892501
4933.881029,1332.370696,-444.123565,-77528.864398
4933.883630,4293.194464,-1776.494261,-76303.111601
4933.886230,-3849.070898,-2220.617826,-74617.701505
4933.888831,1480.411884,1332.370696,-75077.358804
4933.891432,-740.205942,5329.482782,-75537.016103
4933.894033,6661.853478,6365.771101,-76609.549800
4933.896633,-740.205942,6069.688724,-74770.920605
4933.899234,6365.771101,1036.288319,-74924.139704
4933.901835,296.082377,4885.359217,-75230.577904
4933.904436,-2072.576638,8142.265362,-75383.797003
4933.907037,5625.565159,2960.823768,-76456.330700
4933.909637,-2960.823768,444.123565,-75843.454302
4933.912238,3701.029710,-3552.988522,-75843.454302
4933.914839,444.123565,-4145.153275,-76609.549800
4933.917440,-2072.576638,-3849.070898,-76149.892501
4933.920041,5477.523971,-4589.276840,-77222.426198
4933.922641,2960.823768,-3849.070898,-76915.987999
4933.925242,5773.606348,7402.059420,-74924.139704
4933.927843,2516.700203,13323.706956,-75383.797003
4933.930444,-1036.288319,10510.924376,-74924.139704
4933.933045,-1776.494261,6365.771101,-74770.920605
4933.935645,-2072.576638,10066.800811,-73391.948708
4933.938246,1776.494261,16728.654289,-74770.920605
4933.940848,5477.523971,15396.283594,-76609.549800
4933.943449,1776.494261,16284.530724,-73698.386908
4933.946051,2960.823768,6365.771101,-73851.606007
4933.948652,-3997.112087,7698.141797,-74004.825107
4933.951254,-1628.453072,8142.265362,-75996.673402
4933.953856,8438.347739,12139.377449,-76149.892501
4933.956457,3404.947333,8586.388927,-76762.768900
4933.959059,-296.082377,16432.571912,-72932.291410
4933.961660,1480.411884,7846.182985,-75230.577904
4933.964262,1776.494261,6957.935855,-74924.139704
4933.966863,2664.741391,15396.283594,-74311.263306
4933.969465,1776.494261,14508.036463,-75996.673402
4933.972067,5625.565159,18357.107362,-75843.454302
4933.974668,148.041188,13323.706956,-74464.482406
4933.977270,444.123565,10510.924376,-74004.825107
4933.979871,-296.082377,7698.141797,-75077.358804
4933.982473,1332.370696,11399.171507,-74311.263306
4933.985074,740.205942,15988.448347,-74617.701505
4933.987676,2072.576638,16284.530724,-74770.920605
4933.990278,296.082377,1184.329507,-75383.797003
4933.992879,-2368.659014,-5477.523971,-75077.358804
4933.995481,2072.576638,-3701.029710,-74770.920605
4933.998082,8882.471304,0.000000,-77069.207099
4934.000684,4145.153275,888.247130,-76915.987999
4934.003285,4589.276840,-1480.411884,-76762.768900
4934.005887,-5181.441594,-2368.659014,-74464.482406
4934.008489,148.041188,1332.370696,-75230.577904
4934.011090,-592.164754,5625.565159,-76149.892501
4934.013692,2812.782580,6217.729913,-76609.549800
4934.016293,10214.842000,4737.318029,-75077.358804
4934.018895,0.000000,-1776.494261,-75230.577904
4934.021496,-6365.771101,5181.441594,-74617.701505
4934.024098,6957.935855,4885.359217,-77069.207099
4934.026699,148.041188,5181.441594,-75843.454302
4934.029301,6217.729913,-1036.288319,-76149.892501
4934.031903,3256.906145,-2368.659014,-76762.768900
4934.034504,-1036.288319,-6069.688724,-77069.207099
4934.037106,6809.894666,-4589.276840,-76149.892501
4934.039707,-3849.070898,-2220.617826,-76456.330700
4934.042309,14656.077652,3404.947333,-75996.673402
4934.044911,-4885.359217,10510.924376,-75077.358804
4934.047513,11251.130318,12435.459826,-74617.701505
4934.050115,-8438.347739,5329.482782,-74770.920605
4934.052717,592.164754,10066.800811,-72625.853210
4934.055319,-1628.453072,14508.036463,-74004.825107
4934.057921,5477.523971,19393.395680,-74617.701505
4934.060523,2664.741391,15248.242405,-74311.263306
4934.063125,1480.411884,9178.553681,-73545.167808
4934.065727,148.041188,6365.771101,-74004.825107
4934.068329,-296.082377,7402.059420,-75077.358804
4934.070931,2220.617826,9178.553681,-77375.645298
4934.073533,10510.924376,10955.047942,-75843.454302
4934.076135,-6809.894666,11547.212695,-74770.920605
4934.078737,10066.800811,15396.283594,-71553.319513
4934.081339,-1776.494261,4885.359217,-73851.606007
4934.083940,-2368.659014,12583.501014,-74924.139704
4934.086542,9326.594869,15840.407159,-75383.797003
4934.089144,-2812.782580,16580.613101,-75230.577904
4934.091746,8734.430116,13323.706956,-75383.797003
4934.094348,-5329.482782,10362.883188,-73545.167808
4934.096950,4145.153275,10510.924376,-73851.606007
4934.099552,-148.041188,10658.965565,-74770.920605
4934.102154,2812.782580,17320.819043,-74464.482406
4934.104756,296.082377,16728.654289,-75077.358804
4934.107358,1924.535449,2812.782580,-76303.111601
4934.109960,-2812.782580,-3552.988522,-75077.358804
4934.112562,4145.153275,-4885.359217,-74924.139704
4934.115164,5329.482782,-296.082377,-76456.330700
4934.117766,5329.482782,-1036.288319,-77375.645298
4934.120368,5329.482782,-148.041188,-76915.987999
4934.122970,-3997.112087,-3108.864956,-74924.139704
4934.125572,-888.247130,4145.153275,-73851.606007
4934.128174,444.123565,6661.853478,-75996.673402
4934.130776,1924.535449,5329.482782,-77222.426198
4934.133378,2664.741391,5477.523971,-74924.139704
4934.135980,2960.823768,148.041188,-74311.263306
4934.138582,1924.535449,2368.659014,-75230.577904
4934.141184,-148.041188,8586.388927,-74464.482406
4934.143786,-1480.411884,4145.153275,-75996.673402
4934.146388,2664.741391,-2664.741391,-74770.920605
4934.148990,592.164754,-4441.235652,-75690.235202
4934.151592,296.082377,-5625.565159,-76609.549800
4934.154194,740.205942,-5773.606348,-77222.426198
4934.156796,3701.029710,-3552.988522,-77069.207099
4934.159398,6957.935855,2516.700203,-76149.892501
4934.162000,2220.617826,9622.677246,-74770.920605
4934.164602,5033.400406,13323.706956,-74464.482406
4934.167204,-2072.576638,4885.359217,-75690.235202
4934.169806,-1184.329507,13027.624579,-73085.510509
4934.172408,2960.823768,14804.118840,-73085.510509
4934.175010,1184.329507,19689.478057,-74924.139704
4934.177612,5625.565159,14211.954086,-74770.920605
4934.180215,-740.205942,11399.171507,-74004.825107
4934.182817,888.247130,5773.606348,-74311.263306
4934.185419,-444.123565,8586.388927,-74311.263306
4934.188021,7254.018232,10066.800811,-77222.426198
4934.190623,-740.205942,12139.377449,-75383.797003
4934.193225,9030.512492,12879.583391,-74004.825107
4934.195827,2220.617826,10214.842000,-74924.139704
4934.198429,1184.329507,7698.141797,-74464.482406
4934.201031,888.247130,12435.459826,-73238.729609
4934.203633,444.123565,17024.736666,-73238.729609
4934.206235,4145.153275,17764.942608,-74158.044206
4934.208837,-6069.688724,14063.912898,-74617.701505
4934.211439,6513.812290,9918.759623,-73851.606007
4934.214041,-1776.494261,8734.430116,-74004.825107
4934.216643,0.000000,13915.871710,-74464.482406
4934.219245,1184.329507,16876.695478,-75230.577904
4934.221847,3849.070898,17912.983796,-74158.044206
4934.224449,-592.164754,296.082377,-75383.797003
4934.227052,-1184.329507,-6217.729913,-75230.577904
4934.229654,6217.729913,-3849.070898,-75537.016103
4934.232256,3256.906145,-1628.453072,-76456.330700
4934.234858,8438.347739,148.041188,-76456.330700
4934.237460,-296.082377,-1480.411884,-75996.673402
4934.240062,-1776.494261,-888.247130,-74158.044206
4934.242664,-296.082377,3552.988522,-74464.482406
4934.245266,-444.123565,8142.265362,-75230.577904
4934.247868,-3256.906145,8438.347739,-75690.235202
4934.250470,2516.700203,3701.029710,-74617.701505
4934.253071,1184.329507,-444.123565,-75537.016103
4934.255672,-4441.235652,5921.647536,-74924.139704
4934.258273,6513.812290,9178.553681,-74617.701505
4934.260874,-2516.700203,-1332.370696,-75230.577904
4934.263475,7846.182985,-592.164754,-75690.235202
4934.266075,-3849.070898,-8882.471304,-77069.207099
4934.268676,4589.276840,-5921.647536,-77682.083497
4934.271277,592.164754,-6661.853478,-76915.987999
4934.273878,7994.224174,1332.370696,-75230.577904
4934.276479,1480.411884,8142.265362,-74924.139704
4934.279080,5625.565159,13471.748144,-74770.920605
4934.281681,-2072.576638,7698.141797,-74924.139704
4934.284282,-2220.617826,7402.059420,-74158.044206
4934.286883,1184.329507,12879.583391,-73851.606007
4934.289484,0.000000,20133.601622,-74311.263306
4934.292085,9178.553681,15988.448347,-74924.139704
4934.294685,-1332.370696,12287.418637,-73698.386908
4934.297286,3108.864956,5773.606348,-73698.386908
4934.299887,0.000000,7698.141797,-73698.386908
4934.302488,5329.482782,9326.594869,-74770.920605
4934.305089,2368.659014,11695.253884,-75077.358804
4934.307690,3404.947333,14508.036463,-74311.263306
4934.310291,1628.453072,9918.759623,-73851.606007
4934.312892,3552.988522,10066.800811,-73545.167808
4934.315493,2368.659014,8882.471304,-73698.386908
4934.318094,4145.153275,19245.354492,-74311.263306
4934.320695,3256.906145,16432.571912,-74924.139704
4934.323295,2368.659014,15544.324782,-74311.263306
4934.325896,-888.247130,9326.594869,-74158.044206
4934.328497,-1480.411884,8882.471304,-74158.044206
4934.331098,2516.700203,13767.830521,-74004.825107
4934.333699,592.164754,18061.024985,-74464.482406
4934.336300,4885.359217,18653.189738,-74617.701505
4934.338901,-740.205942,-1924.535449,-76303.111601
4934.341502,-4589.276840,-5033.400406,-74617.701505
4934.344103,5033.400406,-5773.606348,-75537.016103
4934.346704,5773.606348,740.205942,-76762.768900
4934.349305,5477.523971,-888.247130,-77835.302597
4934.351905,3404.947333,-296.082377,-75690.235202
4934.354506,-2664.741391,-1628.453072,-75077.358804
4934.357106,740.205942,3701.029710,-75383.797003
4934.359705,-4145.153275,6365.771101,-77528.864398
4934.362305,5477.523971,7105.977043,-76609.549800
4934.364904,5477.523971,0.000000,-77222.426198
4934.367504,1332.370696,1628.453072,-74770.920605
4934.370103,2812.782580,2516.700203,-75383.797003
4934.372703,444.123565,3108.864956,-77222.426198
4934.375302,592.164754,6069.688724,-74464.482406
4934.377902,4589.276840,-3108.864956,-76456.330700
4934.380501,-592.164754,-6365.771101,-76762.768900
4934.383101,3108.864956,-7698.141797,-76762.768900
4934.385700,-2072.576638,-2960.823768,-76303.111601
4934.388300,10955.047942,296.082377,-75690.235202
4934.390899,-3108.864956,10807.006753,-74617.701505
4934.393499,10658.965565,11547.212695,-75383.797003
4934.396098,-6957.935855,7846.182985,-74770.920605
4934.398698,-296.082377,9622.677246,-73698.386908
4934.401297,148.041188,14656.077652,-73851.606007
4934.403897,3404.947333,22502.260637,-75230.577904
4934.406496,7698.141797,15692.365970,-75537.016103
4934.409095,-1184.329507,13175.665768,-73851.606007
4934.411695,2812.782580,3404.947333,-73698.386908
4934.414294,-444.123565,9030.512492,-74311.263306
4934.416894,-296.082377,8586.388927,-75537.016103
4934.419493,-1776.494261,13027.624579,-75843.454302
4934.422093,9622.677246,13027.624579,-74464.482406
4934.424692,3404.947333,10955.047942,-74617.701505
4934.427292,-4441.235652,8882.471304,-74770.920605
4934.429891,7402.059420,11547.212695,-74464.482406
4934.432491,-1184.329507,18061.024985,-73851.606007
4934.435090,8586.388927,16728.654289,-75537.016103
4934.437690,-4737.318029,13915.871710,-74770.920605
4934.440289,3701.029710,7550.100608,-73085.510509
4934.442889,-444.123565,9918.759623,-74464.482406
4934.445488,2220.617826,15840.407159,-74924.139704
4934.448088,-1184.329507,21021.848753,-74770.920605
4934.450687,3256.906145,11399.171507,-76762.768900
4934.453287,-3849.070898,-2220.617826,-75996.673402
4934.455886,2516.700203,-10807.006753,-75843.454302
4934.458486,3701.029710,-3404.947333,-76303.111601
4934.461047,1332.370696,-1036.288319,-77835.302597
4934.463608,12139.377449,1036.288319,-76456.330700
4934.466170,-8142.265362,-1776.494261,-75537.016103
4934.468731,6069.688724,0.000000,-74464.482406
4934.471292,-5477.523971,4885.359217,-76915.987999
4934.473854,2960.823768,8290.306550,-77222.426198
4934.476415,9178.553681,7550.100608,-75077.358804
4934.478976,-8142.265362,-1776.494261,-75843.454302
4934.481537,15248.242405,5033.400406,-75077.358804
4934.484099,-10955.047942,444.123565,-75690.235202
4934.486660,5625.565159,4441.235652,-75996.673402
4934.489221,-148.041188,1924.535449,-72932.291410
4934.491783,-6809.894666,-6957.935855,-76456.330700
4934.494344,11843.295072,-8734.430116,-77835.302597
4934.496905,-8142.265362,-7254.018232,-75996.673402
4934.499467,14952.160028,-2220.617826,-75843.454302
4934.502028,-8142.265362,8882.471304,-74770.920605
4934.504589,15248.242405,13175.665768,-75383.797003
4934.507151,-11251.130318,9030.512492,-74617.701505
4934.509712,7402.059420,7846.182985,-73085.510509
4934.512273,-1924.535449,14952.160028,-74464.482406
4934.514834,5477.523971,21317.931130,-75383.797003
4934.517396,4293.194464,18209.066173,-74464.482406
4934.519957,1332.370696,14508.036463,-73851.606007
4934.522518,1924.535449,3997.112087,-74311.263306
4934.525080,-2516.700203,6661.853478,-73851.606007
4934.527641,4885.359217,6957.935855,-76609.549800
4934.530202,6957.935855,13175.665768,-76149.892501
4934.532764,-4589.276840,13323.706956,-74617.701505
4934.535325,3849.070898,6365.771101,-73698.386908
4934.537886,740.205942,5921.647536,-74770.920605
4934.540447,-2072.576638,11991.336260,-73698.386908
4934.543009,5773.606348,20873.807564,-74158.044206
4934.545570,888.247130,18505.148550,-76303.111601
4934.548131,6513.812290,13471.748144,-74924.139704
4934.550693,-3108.864956,8882.471304,-73085.510509
4934.553254,2220.617826,9474.636058,-74158.044206
4934.555815,4145.153275,17764.942608,-75077.358804
4934.558377,-1036.288319,22354.219448,-74770.920605
4934.560938,8290.306550,10214.842000,-76609.549800
4934.563505,-9474.636058,-4145.153275,-74617.701505
4934.566073,3997.112087,-10066.800811,-73851.606007
4934.568640,2960.823768,-5033.400406,-76303.111601
4934.571207,4737.318029,-1480.411884,-77682.083497
4934.573775,2812.782580,3108.864956,-75843.454302
4934.576342,-592.164754,-888.247130,-75383.797003
4934.578909,1036.288319,1036.288319,-74311.263306
4934.581477,3256.906145,3849.070898,-74158.044206
4934.584044,5921.647536,5329.482782,-75383.797003
4934.586611,-2516.700203,3552.988522,-76609.549800
4934.589179,6069.688724,1924.535449,-74464.482406
4934.591746,-3552.988522,-1332.370696,-75996.673402
4934.594314,7994.224174,2220.617826,-76149.892501
4934.596881,-3701.029710,2664.741391,-74770.920605
4934.599448,2368.659014,-740.205942,-73851.606007
4934.602016,-1776.494261,-4885.359217,-74924.139704
4934.604583,6957.935855,-8586.388927,-76456.330700
4934.607150,-4145.153275,-7402.059420,-76609.549800
4934.609718,11103.089130,-2368.659014,-76303.111601
4934.612285,-4441.235652,9918.759623,-75230.577904
4934.614852,11843.295072,13323.706956,-74770.920605
4934.617420,-6217.729913,6661.853478,-75077.358804
4934.619987,-592.164754,10066.800811,-73085.510509
4934.622554,0.000000,15100.201217,-73851.606007
4934.625122,2812.782580,22206.178260,-75077.358804
4934.627689,5625.565159,17616.901420,-74770.920605
4934.630256,-740.205942,13027.624579,-73238.729609
4934.632824,296.082377,3997.112087,-74004.825107
4934.635391,-4145.153275,6217.729913,-74617.701505
4934.637959,2516.700203,8290.306550,-75383.797003
4934.640526,8142.265362,13175.665768,-75230.577904
4934.643093,-10510.924376,14359.995275,-72779.072310
4934.645661,14508.036463,8586.388927,-73698.386908
4934.648228,-11843.295072,9622.677246,-72319.415011
4934.650795,9622.677246,11399.171507,-72779.072310
4934.653363,-4589.276840,21465.972318,-73238.729609
4934.655930,11695.253884,14804.118840,-75383.797003
4934.658497,1332.370696,13619.789333,-74311.263306
4934.661065,-592.164754,4441.235652,-74770.920605
4934.663632,1184.329507,12731.542202,-73391.948708
4934.666204,0.000000,15692.365970,-74924.139704
4934.668777,3701.029710,23390.507767,-74311.263306
4934.671349,2220.617826,1036.288319,-77375.645298
4934.673922,-2664.741391,-3997.112087,-74158.044206
4934.676494,2516.700203,-10362.883188,-75996.673402
4934.679067,7846.182985,-3997.112087,-77528.864398
4934.681639,2516.700203,1480.411884,-76915.987999
4934.684212,7402.059420,740.205942,-75996.673402
4934.686784,-6069.688724,2220.617826,-74770.920605
4934.689356,-1184.329507,1924.535449,-74770.920605
4934.691929,2368.659014,5773.606348,-77222.426198
4934.694501,8734.430116,1924.535449,-77528.864398
4934.697074,-4589.276840,5033.400406,-75537.016103
4934.699646,13767.830521,3256.906145,-75690.235202
4934.702219,-7994.224174,1628.453072,-75537.016103
4934.704791,2220.617826,3701.029710,-76149.892501
4934.707364,444.123565,740.205942,-76149.892501
4934.709936,2812.782580,-2812.782580,-76303.111601
4934.712508,3108.864956,-5181.441594,-76762.768900
4934.715081,296.082377,-7846.182985,-76609.549800
4934.717653,4441.235652,-6809.894666,-75843.454302
4934.720226,-740.205942,8734.430116,-74004.825107
4934.722798,7254.018232,12583.501014,-76303.111601
4934.725371,-3404.947333,9030.512492,-75690.235202
4934.727943,-888.247130,9030.512492,-73851.606007
4934.730516,-296.082377,14359.995275,-72932.291410
4934.733088,1628.453072,20429.683999,-74158.044206
4934.735660,5329.482782,18949.272115,-75383.797003
4934.738233,0.000000,17320.819043,-73545.167808
4934.740805,3849.070898,4293.194464,-74311.263306
4934.743378,-888.247130,5329.482782,-74004.825107
4934.745950,-1184.329507,7402.059420,-74158.044206
4934.748523,6513.812290,12879.583391,-75077.358804
4934.751095,2072.576638,13323.706956,-75996.673402
4934.753668,-1184.329507,9918.759623,-74158.044206
4934.756240,2368.659014,5773.606348,-74924.139704
4934.758812,3552.988522,11843.295072,-73391.948708
4934.761385,3256.906145,17320.819043,-75996.673402
4934.763957,3849.070898,19097.313304,-76149.892501
4934.766530,148.041188,13619.789333,-74004.825107
4934.769106,4145.153275,7698.141797,-73391.948708
4934.771681,-1776.494261,10658.965565,-74464.482406
4934.774257,3849.070898,17024.736666,-74311.263306
4934.776833,-2516.700203,22798.343014,-74311.263306
4934.779409,7994.224174,3552.988522,-77069.207099
4934.781984,-7105.977043,-6661.853478,-75077.358804
4934.784560,8438.347739,-10214.842000,-75996.673402
4934.787136,1184.329507,-4145.153275,-76609.549800
4934.789712,8882.471304,0.000000,-76609.549800
4934.792287,1628.453072,1924.535449,-75843.454302
4934.794863,888.247130,2960.823768,-75383.797003
4934.797439,-1628.453072,1332.370696,-74617.701505
4934.800015,740.205942,4589.276840,-74311.263306
4934.802590,-4885.359217,6069.688724,-75843.454302
4934.805166,9178.553681,3256.906145,-74924.139704
4934.807742,-3849.070898,-2368.659014,-75077.358804
4934.810318,6513.812290,6661.853478,-74924.139704
4934.812893,-592.164754,1036.288319,-76149.892501
4934.815469,148.041188,-1184.329507,-75996.673402
4934.818045,-148.041188,-1924.535449,-74311.263306
4934.820621,444.123565,-8142.265362,-77375.645298
4934.823196,3701.029710,-6217.729913,-76303.111601
4934.825772,6809.894666,-4885.359217,-75383.797003
4934.828348,-1332.370696,8882.471304,-74311.263306
4934.830924,9622.677246,9770.718434,-75996.673402
4934.833499,-6513.812290,10955.047942,-74924.139704
4934.836075,148.041188,8734.430116,-74158.044206
4934.838651,-1628.453072,17468.860231,-72932.291410
4934.841227,4145.153275,20577.725188,-75230.577904
4934.843802,3552.988522,17616.901420,-74617.701505
4934.846378,2812.782580,12583.501014,-73545.167808
4934.848954,296.082377,5625.565159,-73698.386908
4934.851530,4145.153275,5181.441594,-74158.044206
4934.854105,444.123565,8438.347739,-75077.358804
4934.856681,6513.812290,7402.059420,-76609.549800
4934.859257,-7698.141797,13915.871710,-74311.263306
4934.861833,11251.130318,10658.965565,-74004.825107
4934.864408,-4293.194464,8586.388927,-73851.606007
4934.866984,6809.894666,14656.077652,-73545.167808
4934.869560,888.247130,21021.848753,-75383.797003
4934.872134,2960.823768,15692.365970,-76456.330700
4934.874713,4737.318029,13323.706956,-73238.729609
4934.877292,-2072.576638,8586.388927,-73238.729609
4934.879870,4737.318029,13767.830521,-74004.825107
4934.882449,-3108.864956,21910.095883,-73391.948708
4934.885028,5625.565159,11991.336260,-76456.330700
4934.887606,-3404.947333,0.000000,-75383.797003
4934.890185,1332.370696,-10214.842000,-75077.358804
4934.892763,7254.018232,-6513.812290,-76456.330700
4934.895342,1036.288319,-5033.400406,-77375.645298
4934.897921,7254.018232,1480.411884,-76456.330700
4934.900499,-3552.988522,2812.782580,-75230.577904
4934.903078,592.164754,2812.782580,-74770.920605
4934.905656,2072.576638,3701.029710,-75383.797003
4934.908235,10807.006753,3849.070898,-75537.016103
4934.910814,-6809.894666,4145.153275,-75230.577904
4934.913392,7402.059420,1184.329507,-75383.797003
4934.915971,444.123565,0.000000,-77835.302597
4934.918550,2664.741391,3701.029710,-77375.645298
4934.921128,2664.741391,-1924.535449,-76762.768900
4934.923707,-740.205942,-740.205942,-74924.139704
4934.926285,3552.988522,-6661.853478,-76149.892501
4934.928864,592.164754,-5477.523971,-76915.987999
4934.931443,7105.977043,-7698.141797,-77682.083497
4934.934021,-2368.659014,5921.647536,-73851.606007
4934.936600,10955.047942,11399.171507,-75690.235202
4934.939178,-6365.771101,8882.471304,-75230.577904
4934.941757,1036.288319,8438.347739,-74464.482406
4934.944336,-296.082377,17172.777854,-73238.729609
4934.946914,2220.617826,21317.931130,-75077.358804
4934.949493,6217.729913,18653.189738,-75383.797003
4934.952072,-444.123565,16136.489536,-73238.729609
4934.954650,4441.235652,6069.688724,-73698.386908
4934.957229,-5773.606348,6365.771101,-74770.920605
4934.959807,9474.636058,6217.729913,-76609.549800
4934.962386,-8142.265362,15840.407159,-74311.263306
4934.964965,20577.725188,14063.912898,-74158.044206
4934.967543,-14359.995275,9474.636058,-74158.044206
4934.970122,13471.748144,7254.018232,-74158.044206
4934.972701,-8290.306550,12879.583391,-72166.195912
4934.975280,10658.965565,19541.436869,-74158.044206
4934.977860,2960.823768,16580.613101,-75537.016103
4934.980440,-4441.235652,14063.912898,-73851.606007
4934.983020,5181.441594,9622.677246,-72932.291410
4934.985600,-1184.329507,14804.118840,-72319.415011
4934.988180,3849.070898,18949.272115,-74464.482406
4934.990760,296.082377,14656.077652,-75383.797003
4934.993340,-592.164754,1332.370696,-75690.235202
4934.995920,148.041188,-8586.388927,-75230.577904
4934.998500,7698.141797,-6217.729913,-75537.016103
4935.001080,2664.741391,-6069.688724,-77528.864398
4935.003660,6661.853478,2664.741391,-76149.892501
4935.006240,-2220.617826,740.205942,-75996.673402
4935.008820,2812.782580,5181.441594,-74158.044206
4935.011400,-1924.535449,6365.771101,-74311.263306
4935.013980,148.041188,6809.894666,-74924.139704
4935.016560,6809.894666,1036.288319,-76303.111601
4935.019140,4589.276840,2516.700203,-75843.454302
4935.021720,740.205942,3404.947333,-74770.920605
4935.024299,-888.247130,1480.411884,-75383.797003
4935.026879,0.000000,-444.123565,-75383.797003
4935.029459,-1184.329507,-5181.441594,-75537.016103
4935.032039,5033.400406,-6809.894666,-75843.454302
4935.034619,296.082377,-6957.935855,-76762.768900
4935.037199,9030.512492,-3997.112087,-76149.892501
4935.039779,-5625.565159,5921.647536,-74617.701505
4935.042359,10362.883188,9622.677246,-75077.358804
4935.044939,-8882.471304,8586.388927,-74770.920605
4935.047519,1332.370696,11547.212695,-73085.510509
4935.050099,-2368.659014,19689.478057,-72472.634111
4935.052679,6217.729913,23390.507767,-74464.482406
4935.055259,2960.823768,17320.819043,-75383.797003
4935.057839,1628.453072,15100.201217,-72932.291410
4935.060419,-740.205942,5477.523971,-74311.263306
4935.062999,-1036.288319,6069.688724,-75383.797003
4935.065579,-592.164754,9326.594869,-75996.673402
4935.068159,6513.812290,11547.212695,-74464.482406
4935.070739,-2072.576638,11695.253884,-74770.920605
4935.073318,6957.935855,10066.800811,-73851.606007
4935.075898,-6069.688724,7994.224174,-73391.948708
4935.078480,6217.729913,14804.118840,-73851.606007
4935.081061,3256.906145,20873.807564,-75843.454302
4935.083642,-1776.494261,17764.942608,-74464.482406
4935.086223,6069.688724,10807.006753,-74464.482406
4935.088804,-3701.029710,12139.377449,-72779.072310
4935.091386,2220.617826,15100.201217,-74311.263306
4935.093967,-1184.329507,21021.848753,-74464.482406
4935.096548,4293.194464,6661.853478,-78294.959896
4935.099129,-2516.700203,-1480.411884,-75077.358804
4935.101710,4737.318029,-10362.883188,-75996.673402
4935.104292,4293.194464,-7254.018232,-77375.645298
4935.106873,2368.659014,-1924.535449,-76915.987999
4935.109454,5181.441594,1480.411884,-76303.111601
4935.112035,-3404.947333,4293.194464,-75537.016103
4935.114616,-148.041188,2812.782580,-74311.263306
4935.117197,-148.041188,7550.100608,-75077.358804
4935.119779,148.041188,5921.647536,-74924.139704
4935.122360,17616.901420,592.164754,-77375.645298
4935.124941,-3849.070898,5033.400406,-73851.606007
4935.127522,3997.112087,-296.082377,-75843.454302
4935.130103,1332.370696,-1036.288319,-77835.302597
4935.132685,-1628.453072,-4589.276840,-74924.139704
4935.135266,3997.112087,-5921.647536,-75537.016103
4935.137847,-2516.700203,-6069.688724,-77528.864398
4935.140428,8142.265362,-5773.606348,-77528.864398
4935.143009,3849.070898,2220.617826,-75690.235202
4935.145591,9622.677246,5625.565159,-75230.577904
4935.148172,-6069.688724,11547.212695,-74924.139704
4935.150753,2220.617826,5477.523971,-74311.263306
4935.153334,-5773.606348,14952.160028,-73851.606007
4935.155915,8586.388927,19541.436869,-75383.797003
4935.158496,-1480.411884,21317.931130,-75690.235202
4935.161044,5329.482782,14952.160028,-74770.920605
4935.163592,0.000000,7846.182985,-73545.167808
4935.166140,-3849.070898,6957.935855,-74924.139704
4935.168688,6365.771101,4737.318029,-77069.207099
4935.171236,-7254.018232,10807.006753,-76456.330700
4935.173784,17616.901420,11843.295072,-75230.577904
4935.176332,-14359.995275,11399.171507,-73698.386908
4935.178880,13027.624579,11695.253884,-72932.291410
4935.181427,-8734.430116,10510.924376,-73851.606007
4935.183975,8882.471304,20873.807564,-73851.606007
4935.186523,2072.576638,20133.601622,-74617.701505
4935.189071,-888.247130,13767.830521,-74924.139704
4935.191619,2368.659014,12583.501014,-72779.072310
4935.194167,-1184.329507,13915.871710,-72625.853210
4935.196715,2664.741391,19541.436869,-74311.263306
4935.199263,1036.288319,9178.553681,-76609.549800
4935.201810,-1480.411884,1480.411884,-75383.797003
4935.204358,2812.782580,-9178.553681,-75843.454302
4935.206906,6365.771101,-6069.688724,-76149.892501
4935.209454,1776.494261,-5625.565159,-76609.549800
4935.212002,6809.894666,2812.782580,-75077.358804
4935.214550,-4737.318029,4589.276840,-75537.016103
4935.217098,3108.864956,5033.400406,-74770.920605
4935.219646,-2072.576638,4737.318029,-75843.454302
4935.222194,2516.700203,-1036.288319,-78141.740796
4935.224741,148.041188,6513.812290,-75077.358804
4935.227289,9474.636058,1332.370696,-74770.920605
4935.229837,2072.576638,5773.606348,-75537.016103
4935.232385,-444.123565,296.082377,-77069.207099
4935.234933,740.205942,-3404.947333,-75690.235202
4935.237481,-1184.329507,-6957.935855,-75996.673402
4935.240029,6809.894666,-7254.018232,-76609.549800
4935.242577,3108.864956,-6809.894666,-77222.426198
4935.245124,6957.935855,-296.082377,-75537.016103
4935.247672,-1776.494261,6957.935855,-75843.454302
4935.250220,-2220.617826,7994.224174,-74311.263306
4935.252768,-444.123565,9474.636058,-73085.510509
4935.255316,-2220.617826,13619.789333,-73391.948708
4935.257864,3256.906145,22798.343014,-74617.701505
4935.260412,3552.988522,18505.148550,-76303.111601
4935.262967,2960.823768,15692.365970,-74004.825107
4935.265523,1628.453072,5921.647536,-74770.920605
4935.268078,2664.741391,5773.606348,-74004.825107
4935.270634,1036.288319,7550.100608,-76609.549800
4935.273189,2812.782580,14804.118840,-74617.701505
4935.275745,5181.441594,10214.842000,-75996.673402
4935.278300,1924.535449,15100.201217,-72779.072310
4935.280856,888.247130,5625.565159,-74464.482406
4935.283411,888.247130,12287.418637,-73391.948708
4935.285967,2220.617826,18949.272115,-73851.606007
4935.288522,2664.741391,21169.889941,-73851.606007
4935.291078,4293.194464,11399.171507,-74924.139704
4935.293633,-2072.576638,12583.501014,-72472.634111
4935.296188,3404.947333,15544.324782,-73085.510509
4935.298744,-2072.576638,21465.972318,-73545.167808
4935.301299,8142.265362,2072.576638,-77835.302597
4935.303855,-6661.853478,-3997.112087,-75077.358804
4935.306410,10214.842000,-10362.883188,-77069.207099
4935.308966,740.205942,-8586.388927,-76915.987999
4935.311521,8290.306550,-2960.823768,-76915.987999
4935.314077,-444.123565,2812.782580,-75537.016103
4935.316632,1924.535449,5625.565159,-75230.577904
4935.319188,3404.947333,3701.029710,-73545.167808
4935.321743,1184.329507,6365.771101,-76149.892501
4935.324299,3997.112087,1628.453072,-77528.864398
4935.326854,2368.659014,296.082377,-75537.016103
4935.329410,2516.700203,5181.441594,-72779.072310
4935.331965,444.123565,888.247130,-76762.768900
4935.334521,2960.823768,-148.041188,-77682.083497
4935.337076,-2664.741391,-4293.194464,-75537.016103
4935.339632,7105.977043,-8438.347739,-76456.330700
4935.342187,-296.082377,-7402.059420,-78448.178995
4935.344743,10658.965565,-1924.535449,-76456.330700
4935.347298,-2664.741391,6217.729913,-75077.358804
4935.349853,6069.688724,7846.182985,-75230.577904
4935.352409,-3552.988522,6661.853478,-74311.263306
4935.354964,-888.247130,10510.924376,-73085.510509
4935.357520,1332.370696,20873.807564,-73085.510509
4935.360075,2664.741391,24426.796086,-74464.482406
4935.362631,3108.864956,17912.983796,-74158.044206
4935.365192,1776.494261,10955.047942,-73238.729609
4935.367753,-1776.494261,5773.606348,-73698.386908
4935.370314,5033.400406,4441.235652,-75077.358804
4935.372874,-444.123565,10510.924376,-74617.701505
4935.375435,7550.100608,10066.800811,-75537.016103
4935.377996,6661.853478,14359.995275,-75383.797003
4935.380557,-8882.471304,11251.130318,-73698.386908
4935.383118,5773.606348,9030.512492,-72779.072310
4935.385679,-2072.576638,20281.642811,-71859.757712
4935.388240,6365.771101,19245.354492,-75077.358804
4935.390801,888.247130,18209.066173,-75843.454302
4935.393362,592.164754,11843.295072,-74464.482406
4935.395922,1924.535449,15692.365970,-72932.291410
4935.398483,0.000000,17616.901420,-73851.606007
4935.401044,2220.617826,12583.501014,-75843.454302
4935.403605,-4885.359217,740.205942,-74770.920605
4935.406166,6069.688724,-8586.388927,-77222.426198
4935.408727,5625.565159,-7402.059420,-77069.207099
4935.411288,1036.288319,-6069.688724,-76456.330700
4935.413849,6809.894666,148.041188,-76609.549800
4935.416410,-1924.535449,4737.318029,-74311.263306
4935.418970,2960.823768,5625.565159,-74311.263306
4935.421531,-888.247130,6661.853478,-73238.729609
4935.424092,5181.441594,5773.606348,-75996.673402
4935.426653,-2072.576638,1628.453072,-76149.892501
4935.429214,5181.441594,3849.070898,-74004.825107
4935.431775,296.082377,2812.782580,-76303.111601
4935.434336,888.247130,-1776.494261,-77988.521696
4935.436897,3552.988522,-5033.400406,-77069.207099
4935.439458,-2960.823768,-8438.347739,-76149.892501
4935.442018,7550.100608,-6069.688724,-76149.892501
4935.444579,3108.864956,-4293.194464,-77375.645298
4935.447140,1332.370696,6957.935855,-74464.482406
4935.449701,5921.647536,7402.059420,-75383.797003
4935.452262,-5181.441594,7254.018232,-74770.920605
4935.454823,148.041188,7698.141797,-74617.701505
4935.457384,-1036.288319,18801.230927,-72166.195912
4935.459945,5773.606348,23982.672521,-74464.482406
4935.462506,2812.782580,18949.272115,-75230.577904
4935.465066,1036.288319,14804.118840,-73238.729609
4935.467632,2072.576638,4293.194464,-73085.510509
4935.470198,-4441.235652,6365.771101,-75230.577904
4935.472763,3849.070898,7994.224174,-76915.987999
4935.475329,5773.606348,7550.100608,-77835.302597
4935.477894,-2072.576638,11399.171507,-74770.920605
4935.480460,9326.594869,8734.430116,-74004.825107
4935.483025,-6217.729913,8882.471304,-73391.948708
4935.485591,5329.482782,19689.478057,-71093.662214
4935.488157,-1036.288319,23834.631332,-75383.797003
4935.490722,4737.318029,16580.613101,-75230.577904
4935.493288,-1184.329507,15544.324782,-72779.072310
4935.495853,444.123565,14359.995275,-73238.729609
4935.498419,2072.576638,17616.901420,-73698.386908
4935.500984,-148.041188,10066.800811,-75843.454302
4935.503550,740.205942,1036.288319,-75383.797003
4935.506115,-1184.329507,-7846.182985,-75690.235202
4935.508681,10066.800811,-7402.059420,-77682.083497
4935.511247,-2960.823768,-6365.771101,-76303.111601
4935.513812,11695.253884,2220.617826,-75690.235202
4935.516378,-5329.482782,5477.523971,-75537.016103
4935.518943,6809.894666,6217.729913,-74158.044206
4935.521509,-2960.823768,4293.194464,-74770.920605
4935.524074,3997.112087,740.205942,-75843.454302
4935.526640,-740.205942,4885.359217,-75230.577904
4935.529206,1628.453072,1480.411884,-75077.358804
4935.531771,9770.718434,0.000000,-77528.864398
4935.534337,-6217.729913,-2072.576638,-76609.549800
4935.536902,6069.688724,-6365.771101,-75690.235202
4935.539468,-3849.070898,-8882.471304,-75843.454302
4935.542033,5773.606348,-5033.400406,-76609.549800
4935.544599,7994.224174,-3108.864956,-77375.645298
4935.547164,-1776.494261,3997.112087,-74924.139704
4935.549730,5033.400406,8586.388927,-74924.139704
4935.552296,-5329.482782,3552.988522,-75230.577904
4935.554861,-888.247130,13471.748144,-72319.415011
4935.557427,-148.041188,19837.519246,-73238.729609
4935.559992,4293.194464,27091.537477,-74617.701505
4935.562558,4441.235652,15988.448347,-75383.797003
4935.565123,-1036.288319,13323.706956,-72779.072310
4935.567689,1332.370696,2516.700203,-74770.920605
4935.570258,-2516.700203,6957.935855,-74158.044206
4935.572828,6365.771101,8290.306550,-76915.987999
4935.575397,2072.576638,9178.553681,-76915.987999
4935.577967,6513.812290,15396.283594,-74004.825107
4935.580536,-4441.235652,4885.359217,-75843.454302
4935.583106,2664.741391,12435.459826,-73545.167808
4935.585675,1184.329507,17912.983796,-72625.853210
4935.588244,3552.988522,24130.713709,-74464.482406
4935.590814,2516.700203,14804.118840,-75690.235202
4935.593383,-1184.329507,15544.324782,-72166.195912
4935.595953,3108.864956,14656.077652,-72625.853210
4935.598522,-1776.494261,19393.395680,-73698.386908
4935.601092,5921.647536,3108.864956,-76762.768900
4935.603661,-6069.688724,-2072.576638,-76303.111601
4935.606230,8734.430116,-9178.553681,-75843.454302
4935.608800,3849.070898,-8438.347739,-77069.207099
4935.611369,3108.864956,-1036.288319,-75843.454302
4935.613939,3552.988522,3404.947333,-75230.577904
4935.616508,-1628.453072,8882.471304,-74464.482406
4935.619078,-444.123565,5921.647536,-75230.577904
4935.621647,-2072.576638,4737.318029,-75383.797003
4935.624216,4441.235652,-888.247130,-77222.426198
4935.626786,-2664.741391,444.123565,-74617.701505
4935.629355,12879.583391,1776.494261,-74770.920605
4935.631925,-740.205942,1480.411884,-76456.330700
4935.634494,2960.823768,-5625.565159,-76762.768900
4935.637064,-3108.864956,-7402.059420,-74158.044206
4935.639633,5033.400406,-9178.553681,-75843.454302
4935.642202,7105.977043,-5033.400406,-76456.330700
4935.644772,3256.906145,1776.494261,-75690.235202
4935.647341,3552.988522,5773.606348,-75537.016103
4935.649911,-1628.453072,4737.318029,-75230.577904
4935.652480,444.123565,7402.059420,-73545.167808
4935.655050,-592.164754,15692.365970,-73238.729609
4935.657619,3701.029710,25611.125593,-73085.510509
4935.660188,4589.276840,19541.436869,-75077.358804
4935.662758,1184.329507,13767.830521,-73851.606007
4935.665327,1332.370696,4145.153275,-73851.606007
4935.667897,-7402.059420,6513.812290,-74004.825107
4935.670466,-444.123565,8882.471304,-75843.454302
4935.673038,3849.070898,10510.924376,-75537.016103
4935.675609,6661.853478,12879.583391,-74770.920605
4935.678181,-3256.906145,10807.006753,-72319.415011
4935.680753,2960.823768,5625.565159,-74004.825107
4935.683324,-1776.494261,16284.530724,-72472.634111
4935.685896,4589.276840,21614.013506,-74004.825107
4935.688467,3552.988522,21465.972318,-75230.577904
4935.691039,-592.164754,17024.736666,-73238.729609
4935.693611,3997.112087,14211.954086,-72166.195912
4935.696182,-3404.947333,18653.189738,-73238.729609
4935.698754,6069.688724,3849.070898,-76456.330700
4935.701325,-7254.018232,1184.329507,-75383.797003
4935.703897,11399.171507,-7698.141797,-76303.111601
4935.706469,2072.576638,-8734.430116,-77069.207099
4935.709040,5181.441594,-6957.935855,-77222.426198
4935.711612,3552.988522,1184.329507,-75843.454302
4935.714183,740.205942,6809.894666,-75383.797003
4935.716755,4293.194464,7994.224174,-73698.386908
4935.719326,3404.947333,2960.823768,-75690.235202
4935.721898,-4441.235652,5033.400406,-74770.920605
4935.724470,10807.006753,-148.041188,-75077.358804
4935.727041,-7254.018232,0.000000,-75843.454302
4935.729613,6069.688724,4293.194464,-76149.892501
4935.732184,-5477.523971,-5477.523971,-75383.797003
4935.734756,5033.400406,-9770.718434,-75383.797003
4935.737328,-3108.864956,-8734.430116,-75230.577904
4935.739899,11103.089130,-7105.977043,-77222.426198
4935.742471,-296.082377,3256.906145,-75843.454302
4935.745042,8882.471304,6513.812290,-75383.797003
4935.747614,-6809.894666,6957.935855,-75077.358804
4935.750186,-2368.659014,3997.112087,-74617.701505
4935.752757,2664.741391,17468.860231,-72472.634111
4935.755329,1628.453072,24130.713709,-73545.167808
4935.757900,5181.441594,21169.889941,-75230.577904
4935.760472,592.164754,13175.665768,-74617.701505
4935.763044,296.082377,3256.906145,-74004.825107
4935.765615,-3849.070898,4145.153275,-75230.577904
4935.768187,2072.576638,11843.295072,-74464.482406
4935.770758,5773.606348,11399.171507,-77375.645298
4935.773330,2072.576638,11103.089130,-75383.797003
4935.775903,1036.288319,5033.400406,-74770.920605
4935.778477,-2072.576638,9918.759623,-74311.263306
4935.781050,3552.988522,14063.912898,-75537.016103
4935.783623,1924.535449,27239.578666,-74158.044206
4935.786197,3552.988522,19097.313304,-76609.549800
4935.788770,-592.164754,17172.777854,-72932.291410
4935.791343,296.082377,13619.789333,-73391.948708
4935.793917,-740.205942,18505.148550,-73851.606007
4935.796490,3256.906145,1332.370696,-77375.645298
4935.799064,-2664.741391,-1184.329507,-74924.139704
4935.801637,5773.606348,-8882.471304,-76915.987999
4935.804210,7402.059420,-8882.471304,-76915.987999
4935.806784,-592.164754,-5773.606348,-76456.330700
4935.809357,888.247130,4145.153275,-75843.454302
4935.811930,-1332.370696,11547.212695,-75383.797003
4935.814504,3849.070898,6365.771101,-76149.892501
4935.817077,-1924.535449,5625.565159,-75996.673402
4935.819650,2368.659014,1924.535449,-74924.139704
4935.822224,-296.082377,-2220.617826,-75996.673402
4935.824797,6069.688724,7402.059420,-74617.701505
4935.827370,1184.329507,-1628.453072,-77528.864398
4935.829944,-1776.494261,-4885.359217,-75383.797003
4935.832517,1184.329507,-11251.130318,-75690.235202
4935.835091,888.247130,-8142.265362,-76149.892501
4935.837664,11251.130318,-4885.359217,-77835.302597
4935.840237,-2664.741391,5921.647536,-75230.577904
4935.842811,11843.295072,7698.141797,-75383.797003
4935.845384,-9474.636058,3256.906145,-75690.235202
4935.847957,-1036.288319,6365.771101,-74158.044206
4935.850531,-2072.576638,20133.601622,-72779.072310
4935.853104,6957.935855,27239.578666,-74158.044206
4935.855677,2220.617826,18357.107362,-74770.920605
4935.858251,-296.082377,11103.089130,-72625.853210
4935.860824,1184.329507,-1184.329507,-73698.386908
4935.863398,-3256.906145,7994.224174,-73238.729609
4935.865971,5625.565159,8586.388927,-76915.987999
4935.868544,1332.370696,10658.965565,-77835.302597
4935.871118,3701.029710,11695.253884,-74004.825107
4935.873691,0.000000,6809.894666,-73545.167808
4935.876264,-296.082377,10658.965565,-73851.606007
4935.878840,0.000000,22354.219448,-72779.072310
4935.881415,1924.535449,23390.507767,-75077.358804
4935.883989,3849.070898,20873.807564,-74004.825107
4935.886564,-1480.411884,17912.983796,-71553.319513
4935.889139,1184.329507,15544.324782,-72932.291410
4935.891714,-740.205942,6957.935855,-75690.235202
4935.894289,-296.082377,1036.288319,-74617.701505
4935.896864,296.082377,-3849.070898,-76303.111601
4935.899439,12139.377449,-6957.935855,-77682.083497
4935.902014,-2220.617826,-9474.636058,-77222.426198
4935.904589,7550.100608,-592.164754,-76149.892501
4935.907164,-1036.288319,5625.565159,-74924.139704
4935.909739,5181.441594,11991.336260,-73545.167808
4935.912314,-740.205942,6957.935855,-76303.111601
4935.914889,1332.370696,2368.659014,-76609.549800
4935.917464,-1924.535449,-1776.494261,-76149.892501
4935.920039,11843.295072,1480.411884,-74770.920605
4935.922614,-2812.782580,3849.070898,-75077.358804
4935.925189,4441.235652,-1924.535449,-75996.673402
4935.927764,-5625.565159,-8882.471304,-74311.263306
4935.930339,5625.565159,-10066.800811,-75077.358804
4935.932914,3849.070898,-5625.565159,-77222.426198
4935.935489,-296.082377,2812.782580,-75996.673402
4935.938064,7254.018232,8586.388927,-75690.235202
4935.940639,-2960.823768,3552.988522,-76609.549800
4935.943214,-296.082377,7105.977043,-74464.482406
4935.945789,-296.082377,13027.624579,-72932.291410
4935.948364,3108.864956,26795.455100,-72932.291410
4935.950939,6513.812290,20133.601622,-74770.920605
4935.953514,-444.123565,16284.530724,-73545.167808
4935.956089,1184.329507,-592.164754,-75383.797003
4935.958664,-1184.329507,3256.906145,-74004.825107
4935.961239,-296.082377,7550.100608,-77069.207099
4935.963814,148.041188,14063.912898,-77835.302597
4935.966388,4885.359217,10214.842000,-75537.016103
4935.968963,4145.153275,11251.130318,-73085.510509
4935.971538,592.164754,5625.565159,-76149.892501
4935.974113,-1776.494261,17468.860231,-74311.263306
4935.976688,2960.823768,24426.796086,-74617.701505
4935.979263,2812.782580,20133.601622,-74617.701505
4935.981806,1332.370696,17320.819043,-72779.072310
4935.984349,-2072.576638,14952.160028,-72319.415011
4935.986892,888.247130,13175.665768,-74004.825107
4935.989435,-1184.329507,-444.123565,-75690.235202
4935.991978,-444.123565,-2812.782580,-76762.768900
4935.994521,7105.977043,-7698.141797,-77988.521696
4935.997064,1924.535449,-6661.853478,-76303.111601
4935.999607,6661.853478,-1924.535449,-75690.235202
4936.002150,-1480.411884,6809.894666,-75383.797003
4936.004693,-3552.988522,12435.459826,-75383.797003
4936.007236,-296.082377,10807.006753,-74924.139704
4936.009779,6513.812290,9030.512492,-75077.358804
4936.012322,-3701.029710,-3552.988522,-76915.987999
4936.014865,7254.018232,-444.123565,-75383.797003
4936.017408,8142.265362,4737.318029,-75690.235202
4936.019951,-1036.288319,-3997.112087,-79367.493593
4936.022494,7846.182985,-7550.100608,-77222.426198
4936.025037,-7402.059420,-8142.265362,-74158.044206
4936.027580,15248.242405,-6957.935855,-77528.864398
4936.030123,-5033.400406,888.247130,-76915.987999
4936.032666,10362.883188,7254.018232,-75996.673402
4936.035209,-5477.523971,6661.853478,-74770.920605
4936.037752,296.082377,7698.141797,-73391.948708
4936.040295,-444.123565,14211.954086,-73851.606007
4936.042838,3256.906145,26499.372724,-73851.606007
4936.045381,5477.523971,21169.889941,-74770.920605
4936.047924,1480.411884,14656.077652,-74158.044206
4936.050467,4293.194464,-1480.411884,-74311.263306
4936.053010,-5921.647536,3256.906145,-71859.757712
4936.055553,5625.565159,11103.089130,-74004.825107
4936.058096,5625.565159,9030.512492,-78907.836294
4936.060639,888.247130,12583.501014,-73698.386908
4936.063182,3256.906145,3701.029710,-73698.386908
4936.065725,-1332.370696,7994.224174,-74311.263306
4936.068268,-1184.329507,16876.695478,-73391.948708
4936.070811,2812.782580,25463.084405,-73698.386908
4936.073354,1184.329507,22502.260637,-74158.044206
4936.075897,1332.370696,20429.683999,-71859.757712
4936.078440,-2368.659014,16432.571912,-71706.538613
4936.080983,4293.194464,6217.729913,-74464.482406
4936.083533,-7698.141797,-1184.329507,-75077.358804
4936.086083,4885.359217,-6513.812290,-76149.892501
4936.088633,4145.153275,-7254.018232,-77988.521696
4936.091183,5921.647536,-9178.553681,-77375.645298
4936.093733,444.123565,740.205942,-75690.235202
4936.096283,1776.494261,6217.729913,-74770.920605
4936.098833,1776.494261,13767.830521,-72319.415011
4936.101383,-2516.700203,10066.800811,-74004.825107
4936.103933,7550.100608,3552.988522,-75230.577904
4936.106482,148.041188,0.000000,-76456.330700
4936.109032,3701.029710,3552.988522,-74464.482406
4936.111582,3256.906145,1776.494261,-75383.797003
4936.114132,444.123565,-1332.370696,-75690.235202
4936.116682,1924.535449,-9326.594869,-75537.016103
4936.119232,-444.123565,-7402.059420,-75230.577904
4936.121782,11843.295072,-6069.688724,-77988.521696
4936.124332,-1036.288319,5625.565159,-75077.358804
4936.126882,9770.718434,7105.977043,-74464.482406
4936.129432,-3552.988522,6069.688724,-74464.482406
4936.131982,-1332.370696,6513.812290,-74464.482406
4936.134532,-148.041188,22650.301825,-72779.072310
4936.137081,6217.729913,26499.372724,-74770.920605
4936.139631,4145.153275,20725.766376,-74158.044206
4936.142181,2220.617826,9178.553681,-73698.386908
4936.144731,-740.205942,-2516.700203,-74770.920605
4936.147281,148.041188,3256.906145,-74770.920605
4936.149831,296.082377,14063.912898,-76762.768900
4936.152381,8734.430116,10066.800811,-78294.959896
4936.154931,-444.123565,6809.894666,-73391.948708
4936.157481,3849.070898,5921.647536,-72625.853210
4936.160031,-3997.112087,10807.006753,-74004.825107
4936.162581,4441.235652,23982.672521,-75843.454302
4936.165130,888.247130,23390.507767,-75690.235202
4936.167680,2812.782580,20725.766376,-74311.263306
4936.170230,-1924.535449,16136.489536,-72319.415011
4936.172780,-740.205942,13175.665768,-73545.167808
4936.175330,2072.576638,-1036.288319,-75843.454302
4936.177880,-3256.906145,-4145.153275,-76303.111601
4936.180430,7994.224174,-6809.894666,-78141.740796
4936.182980,2664.741391,-9030.512492,-77682.083497
4936.185536,4145.153275,-3108.864956,-75843.454302
4936.188092,148.041188,3701.029710,-74464.482406
4936.190648,4885.359217,11251.130318,-74004.825107
4936.193204,1628.453072,9178.553681,-74311.263306
4936.195759,-888.247130,6809.894666,-75230.577904
4936.198315,2664.741391,1628.453072,-75843.454302
4936.200871,1924.535449,-888.247130,-74311.263306
4936.203427,-296.082377,3701.029710,-75077.358804
4936.205983,4885.359217,-296.082377,-77988.521696
4936.208539,-1924.535449,-7994.224174,-77682.083497
4936.211095,4145.153275,-8142.265362,-75383.797003
4936.213651,6365.771101,-4885.359217,-76303.111601
4936.216207,1480.411884,2220.617826,-77375.645298
4936.218763,8586.388927,10214.842000,-75996.673402
4936.221319,-2664.741391,4885.359217,-75230.577904
4936.223875,-888.247130,6513.812290,-74924.139704
4936.226430,-148.041188,12287.418637,-73698.386908
4936.228986,2812.782580,26351.331535,-73085.510509
4936.231542,10807.006753,21614.013506,-74924.139704
4936.234098,-592.164754,12287.418637,-73698.386908
4936.236654,5773.606348,-3108.864956,-74004.825107
4936.239210,-3997.112087,3108.864956,-72166.195912
4936.241766,11547.212695,7105.977043,-76456.330700
4936.244322,-6069.688724,15100.201217,-76915.987999
4936.246878,10510.924376,5329.482782,-76149.892501
4936.249434,-1480.411884,8142.265362,-72166.195912
4936.251990,-6365.771101,10510.924376,-73545.167808
4936.254546,6069.688724,20577.725188,-75690.235202
4936.257101,-2072.576638,25463.084405,-75383.797003
4936.259657,7698.141797,21021.848753,-74004.825107
4936.262213,-5329.482782,20281.642811,-72932.291410
4936.264769,5477.523971,13471.748144,-72779.072310
4936.267325,-5033.400406,2812.782580,-75230.577904
4936.269881,1628.453072,-3256.906145,-75996.673402
4936.272437,-148.041188,-6069.688724,-77069.207099
4936.274993,10362.883188,-9474.636058,-78294.959896
4936.277549,-2960.823768,-3849.070898,-75843.454302
4936.280105,9918.759623,2664.741391,-74004.825107
4936.282661,-7402.059420,8586.388927,-74617.701505
4936.285217,3256.906145,12583.501014,-73851.606007
4936.287778,6365.771101,10362.883188,-73085.510509
4936.290339,-9622.677246,4145.153275,-75843.454302
4936.292900,9030.512492,-740.205942,-76303.111601
4936.295461,-1036.288319,2368.659014,-72166.195912
4936.298022,3552.988522,-2072.576638,-76456.330700
4936.300583,2664.741391,-7698.141797,-76456.330700
4936.303144,-2516.700203,-7105.977043,-74464.482406
4936.305705,13767.830521,-7550.100608,-76915.987999
4936.308266,-3108.864956,1332.370696,-76915.987999
4936.310827,11547.212695,7105.977043,-76609.549800
4936.313389,-6661.853478,7105.977043,-74311.263306
4936.315950,1628.453072,6957.935855,-73851.606007
4936.318511,-2368.659014,14656.077652,-73698.386908
4936.321072,5033.400406,26203.290347,-74464.482406
4936.323633,5329.482782,22058.137072,-75230.577904
4936.326194,-296.082377,14211.954086,-73545.167808
4936.328755,2664.741391,-1036.288319,-75537.016103
4936.331316,-2072.576638,-2072.576638,-75077.358804
4936.333877,-1480.411884,11103.089130,-75537.016103
4936.336438,9326.594869,15692.365970,-77835.302597
4936.338999,-296.082377,8142.265362,-73391.948708
4936.341560,1184.329507,5625.565159,-73238.729609
4936.344122,-444.123565,8882.471304,-73698.386908
4936.346683,148.041188,17468.860231,-77222.426198
4936.349244,4737.318029,24130.713709,-76456.330700
4936.351805,444.123565,22354.219448,-74464.482406
4936.354366,3108.864956,19689.478057,-72472.634111
4936.356927,444.123565,13619.789333,-73391.948708
4936.359488,-1924.535449,-2368.659014,-76609.549800
4936.362049,296.082377,-4737.318029,-74924.139704
4936.364610,1776.494261,-6513.812290,-77682.083497
4936.367171,8734.430116,-8142.265362,-78754.617194
4936.369736,-888.247130,-4145.153275,-76303.111601
4936.372301,8142.265362,3701.029710,-74770.920605
4936.374866,-3701.029710,8882.471304,-73698.386908
4936.377430,296.082377,11399.171507,-75383.797003
4936.379995,7402.059420,5921.647536,-74924.139704
4936.382560,-888.247130,6069.688724,-76456.330700
4936.385125,1184.329507,-888.247130,-76762.768900
4936.387689,3849.070898,1776.494261,-75077.358804
4936.390254,2220.617826,-1924.535449,-76456.330700
4936.392819,1036.288319,-8586.388927,-77375.645298
4936.395384,-3108.864956,-6957.935855,-75383.797003
4936.397948,10955.047942,-4737.318029,-76303.111601
