#time,accel_x,accel_y,accel_z
27514.485413,-6513.812290,2960.823768,-75996.673402
27514.487995,7994.224174,5773.606348,-74924.139704
27514.490578,-2072.576638,296.082377,-76303.111601
27514.493161,5625.565159,592.164754,-75230.577904
27514.495744,148.041188,888.247130,-75996.673402
27514.498327,2072.576638,2664.741391,-75537.016103
27514.500909,1036.288319,-296.082377,-76456.330700
27514.503492,-5625.565159,-7254.018232,-75843.454302
27514.506075,1036.288319,-7105.977043,-75690.235202
27514.508658,2664.741391,1776.494261,-75843.454302
27514.511241,10807.006753,13619.789333,-77069.207099
27514.513823,3108.864956,20281.642811,-75077.358804
27514.516406,4145.153275,23390.507767,-72472.634111
27514.518989,740.205942,17024.736666,-72779.072310
27514.521572,-2812.782580,8882.471304,-74464.482406
27514.524154,-2368.659014,6809.894666,-74158.044206
27514.526737,3108.864956,3404.947333,-75537.016103
27514.529320,7254.018232,-1332.370696,-78141.740796
27514.531921,1924.535449,-1628.453072,-76303.111601
27514.534521,3701.029710,5477.523971,-75690.235202
27514.537122,-3256.906145,11547.212695,-74924.139704
27514.539722,3701.029710,18061.024985,-75230.577904
27514.542323,4293.194464,11695.253884,-76762.768900
27514.544924,-148.041188,8438.347739,-74617.701505
27514.547524,4145.153275,3701.029710,-73851.606007
27514.550125,-3256.906145,9918.759623,-76149.892501
27514.552725,5033.400406,1924.535449,-78601.398095
27514.555326,-3997.112087,11695.253884,-74004.825107
27514.557927,7698.141797,7105.977043,-74004.825107
27514.560527,-3552.988522,14656.077652,-72166.195912
27514.563128,3552.988522,15544.324782,-75537.016103
27514.565729,1480.411884,16432.571912,-74311.263306
27514.568329,2072.576638,10214.842000,-74617.701505
27514.570930,1628.453072,5625.565159,-75383.797003
27514.573530,1628.453072,444.123565,-75843.454302
27514.576131,1776.494261,1332.370696,-74924.139704
27514.578732,-5181.441594,5773.606348,-75996.673402
27514.581332,5625.565159,12583.501014,-75230.577904
27514.583933,888.247130,16284.530724,-73391.948708
27514.586533,12583.501014,15100.201217,-73698.386908
27514.589134,-888.247130,11695.253884,-73698.386908
27514.591735,1332.370696,2812.782580,-75230.577904
27514.594335,-6513.812290,8586.388927,-74617.701505
27514.596936,740.205942,12435.459826,-76609.549800
27514.599536,6217.729913,6957.935855,-76915.987999
27514.602137,-148.041188,444.123565,-73391.948708
27514.604738,5033.400406,-4145.153275,-75843.454302
27514.607338,-740.205942,5477.523971,-76303.111601
27514.609939,2812.782580,8290.306550,-75843.454302
27514.612539,7105.977043,8586.388927,-75230.577904
27514.615140,-296.082377,148.041188,-75537.016103
27514.617741,9622.677246,148.041188,-73851.606007
27514.620341,-10955.047942,-1184.329507,-76149.892501
27514.622942,7550.100608,6513.812290,-77222.426198
27514.625543,-4589.276840,8142.265362,-75383.797003
27514.628143,10214.842000,6217.729913,-74770.920605
27514.630744,3701.029710,1628.453072,-75077.358804
27514.633344,2516.700203,1480.411884,-74617.701505
27514.635950,3552.988522,2516.700203,-74617.701505
27514.638557,-3997.112087,3404.947333,-74617.701505
27514.641163,1332.370696,1480.411884,-75843.454302
27514.643769,2368.659014,-2664.741391,-76456.330700
27514.646375,-2664.741391,10066.800811,-74464.482406
27514.648981,3997.112087,1480.411884,-76149.892501
27514.651587,3108.864956,9178.553681,-74617.701505
27514.654193,-3108.864956,7698.141797,-72625.853210
27514.656800,6661.853478,2368.659014,-75690.235202
27514.659406,-148.041188,3256.906145,-76609.549800
27514.662012,5921.647536,888.247130,-76762.768900
27514.664618,148.041188,5625.565159,-75537.016103
27514.667224,2960.823768,-1776.494261,-77069.207099
27514.669830,1628.453072,-296.082377,-75383.797003
27514.672436,5329.482782,-2072.576638,-75383.797003
27514.675042,-888.247130,2072.576638,-75690.235202
27514.677649,3108.864956,5329.482782,-76456.330700
27514.680255,-2368.659014,9474.636058,-75537.016103
27514.682861,-1924.535449,4145.153275,-75077.358804
27514.685467,4441.235652,2664.741391,-74311.263306
27514.688073,9918.759623,-888.247130,-75996.673402
27514.690679,-1924.535449,3108.864956,-75077.358804
27514.693285,5329.482782,6809.894666,-75537.016103
27514.695891,-3404.947333,148.041188,-76609.549800
27514.698498,-1776.494261,444.123565,-75077.358804
27514.701104,-1036.288319,7402.059420,-74464.482406
27514.703710,7994.224174,17172.777854,-75537.016103
27514.706316,-3108.864956,21465.972318,-74770.920605
27514.708922,7402.059420,15248.242405,-74617.701505
27514.711528,-4145.153275,6513.812290,-73545.167808
27514.714134,8438.347739,7698.141797,-74158.044206
27514.716741,1628.453072,5477.523971,-75537.016103
27514.719347,4145.153275,8142.265362,-75537.016103
27514.721953,592.164754,6661.853478,-74617.701505
27514.724559,-4589.276840,8586.388927,-74004.825107
27514.727165,740.205942,7550.100608,-74464.482406
27514.729771,-1036.288319,12731.542202,-74770.920605
27514.732377,8438.347739,9770.718434,-74924.139704
27514.734983,-592.164754,9178.553681,-73238.729609
27514.737590,5477.523971,9326.594869,-72779.072310
27514.740199,-5329.482782,6069.688724,-73545.167808
27514.742808,4293.194464,4589.276840,-75077.358804
27514.745417,-1332.370696,11399.171507,-73698.386908
27514.748026,5477.523971,8438.347739,-74004.825107
27514.750635,444.123565,5921.647536,-74004.825107
27514.753244,2516.700203,6365.771101,-75230.577904
27514.755853,1628.453072,8142.265362,-75843.454302
27514.758462,444.123565,11991.336260,-75843.454302
27514.761071,1776.494261,13471.748144,-76303.111601
27514.763680,1628.453072,12583.501014,-76609.549800
27514.766289,888.247130,14656.077652,-74464.482406
27514.768898,3108.864956,10362.883188,-75230.577904
27514.771507,740.205942,9918.759623,-74311.263306
27514.774115,1480.411884,4589.276840,-75383.797003
27514.776724,-3404.947333,2812.782580,-75537.016103
27514.779333,4145.153275,8290.306550,-74770.920605
27514.781942,2960.823768,11251.130318,-74770.920605
27514.784551,10362.883188,13619.789333,-75230.577904
27514.787160,4293.194464,12435.459826,-74004.825107
27514.789769,-592.164754,7698.141797,-74770.920605
27514.792378,-6069.688724,7550.100608,-74464.482406
27514.794987,-740.205942,17172.777854,-74617.701505
27514.797596,9030.512492,5625.565159,-76915.987999
27514.800205,-1036.288319,-2812.782580,-74464.482406
27514.802814,5625.565159,-5477.523971,-74311.263306
27514.805423,-5033.400406,-1480.411884,-75843.454302
27514.808032,4737.318029,7402.059420,-76762.768900
27514.810641,4737.318029,8290.306550,-76149.892501
27514.813250,2812.782580,5773.606348,-74617.701505
27514.815859,7550.100608,3404.947333,-74770.920605
27514.818468,-10658.965565,1776.494261,-75996.673402
27514.821077,6513.812290,6217.729913,-76456.330700
27514.823686,-4737.318029,3997.112087,-76303.111601
27514.826295,7105.977043,4885.359217,-74924.139704
27514.828904,444.123565,-1036.288319,-75537.016103
27514.831513,2812.782580,1776.494261,-75537.016103
27514.834122,1628.453072,592.164754,-75690.235202
27514.836731,888.247130,6957.935855,-76915.987999
27514.839340,1480.411884,296.082377,-77835.302597
27514.841949,2220.617826,2368.659014,-76762.768900
27514.844443,2812.782580,5329.482782,-75077.358804
27514.846936,2368.659014,888.247130,-75996.673402
27514.849429,3108.864956,14508.036463,-73545.167808
27514.851923,-1036.288319,1924.535449,-75996.673402
27514.854416,4441.235652,8586.388927,-73391.948708
27514.856909,-592.164754,1776.494261,-73391.948708
27514.859403,1924.535449,1628.453072,-75537.016103
27514.861896,-592.164754,1628.453072,-74924.139704
27514.864390,3552.988522,148.041188,-75077.358804
27514.866883,1332.370696,-1184.329507,-76303.111601
27514.869376,1628.453072,2960.823768,-74464.482406
27514.871870,3701.029710,5625.565159,-76303.111601
27514.874363,-6809.894666,7550.100608,-74924.139704
27514.876856,6217.729913,5477.523971,-74770.920605
27514.879350,1332.370696,-1776.494261,-76609.549800
27514.881843,14211.954086,2072.576638,-76303.111601
27514.884336,-2516.700203,1628.453072,-75996.673402
27514.886830,5329.482782,9918.759623,-75230.577904
27514.889323,-2664.741391,1332.370696,-76762.768900
27514.891816,-2960.823768,444.123565,-75843.454302
27514.894310,592.164754,9770.718434,-74004.825107
27514.896803,11251.130318,18801.230927,-74004.825107
27514.899297,-4885.359217,15988.448347,-74464.482406
27514.901790,8734.430116,11695.253884,-73545.167808
27514.904283,-5181.441594,7254.018232,-73238.729609
27514.906777,11251.130318,6513.812290,-74617.701505
27514.909270,-1184.329507,5921.647536,-76303.111601
27514.911763,7846.182985,7698.141797,-75996.673402
27514.914257,-3552.988522,7994.224174,-74770.920605
27514.916750,-2368.659014,9474.636058,-73851.606007
27514.919243,-7550.100608,11103.089130,-73238.729609
27514.921737,12879.583391,14211.954086,-74617.701505
27514.924230,1036.288319,9770.718434,-76456.330700
27514.926723,7254.018232,10807.006753,-74770.920605
27514.929217,-3108.864956,6069.688724,-73238.729609
27514.931710,-148.041188,11695.253884,-73238.729609
27514.934204,2220.617826,888.247130,-76149.892501
27514.936697,-4441.235652,19541.436869,-72625.853210
27514.939190,11251.130318,2960.823768,-75383.797003
27514.941684,-5477.523971,5773.606348,-74924.139704
27514.944213,9030.512492,10066.800811,-74311.263306
27514.946743,-6661.853478,11695.253884,-74617.701505
27514.949272,9178.553681,12583.501014,-76456.330700
27514.951802,-3849.070898,15840.407159,-73545.167808
27514.954331,7550.100608,13619.789333,-75537.016103
27514.956861,-5921.647536,8142.265362,-74004.825107
27514.959390,3256.906145,7105.977043,-74311.263306
27514.961920,-6809.894666,2960.823768,-75690.235202
27514.964449,5921.647536,10066.800811,-75843.454302
27514.966979,2960.823768,8586.388927,-74617.701505
27514.969509,5477.523971,14211.954086,-73851.606007
27514.972038,12583.501014,9030.512492,-74311.263306
27514.974568,-4885.359217,6957.935855,-75230.577904
27514.977097,-740.205942,7402.059420,-74770.920605
27514.979627,-2664.741391,17912.983796,-74158.044206
27514.982156,7254.018232,12435.459826,-76762.768900
27514.984686,3404.947333,-2812.782580,-76915.987999
27514.987215,1480.411884,-6809.894666,-74464.482406
27514.989745,1036.288319,-6513.812290,-76149.892501
27514.992274,1480.411884,4589.276840,-76456.330700
27514.994804,4589.276840,4737.318029,-77375.645298
27514.997333,5329.482782,6513.812290,-75230.577904
27514.999863,5625.565159,3997.112087,-73238.729609
27515.002392,-8142.265362,3256.906145,-74311.263306
27515.004922,4293.194464,8290.306550,-74924.139704
27515.007452,-2516.700203,6957.935855,-76149.892501
27515.009981,5181.441594,6809.894666,-75843.454302
27515.012511,3701.029710,1036.288319,-74924.139704
27515.015040,2368.659014,-1924.535449,-76609.549800
27515.017570,5329.482782,-444.123565,-76456.330700
27515.020099,-1480.411884,3552.988522,-77069.207099
27515.022629,3108.864956,2516.700203,-77988.521696
27515.025158,1184.329507,8142.265362,-75077.358804
27515.027688,5033.400406,4145.153275,-75537.016103
27515.030217,888.247130,6365.771101,-75077.358804
27515.032747,1036.288319,5329.482782,-75383.797003
27515.035276,2220.617826,4293.194464,-75996.673402
27515.037806,1628.453072,6661.853478,-75077.358804
27515.040336,2516.700203,-1480.411884,-76915.987999
27515.042865,740.205942,3701.029710,-74770.920605
27515.045324,2812.782580,-1480.411884,-75996.673402
27515.047783,-592.164754,2072.576638,-74311.263306
27515.050242,2368.659014,2368.659014,-75690.235202
27515.052701,1184.329507,3256.906145,-76303.111601
27515.055160,-3997.112087,4293.194464,-74924.139704
27515.057619,1924.535449,2072.576638,-75230.577904
27515.060077,3701.029710,-1184.329507,-76456.330700
27515.062536,10955.047942,3552.988522,-75537.016103
27515.064995,-444.123565,4293.194464,-75230.577904
27515.067454,3108.864956,8290.306550,-75077.358804
27515.069913,-1480.411884,-1480.411884,-77682.083497
27515.072372,-3404.947333,-296.082377,-75230.577904
27515.074831,2664.741391,10362.883188,-74924.139704
27515.077290,8734.430116,20873.807564,-74617.701505
27515.079749,-3108.864956,16136.489536,-74617.701505
27515.082208,5921.647536,10955.047942,-73391.948708
27515.084667,-3108.864956,6217.729913,-73545.167808
27515.087125,9622.677246,8142.265362,-75230.577904
27515.089584,1628.453072,8438.347739,-76456.330700
27515.092043,5773.606348,9474.636058,-75996.673402
27515.094502,-1332.370696,8142.265362,-75230.577904
27515.096961,-3701.029710,7698.141797,-74311.263306
27515.099420,-148.041188,8586.388927,-73391.948708
27515.101879,9622.677246,11991.336260,-74770.920605
27515.104338,888.247130,13471.748144,-72779.072310
27515.106797,4589.276840,8142.265362,-73391.948708
27515.109256,1924.535449,3256.906145,-75996.673402
27515.111714,-1628.453072,11103.089130,-73698.386908
27515.114173,3997.112087,5181.441594,-76149.892501
27515.116632,-2072.576638,9918.759623,-74311.263306
27515.119091,5477.523971,8438.347739,-74770.920605
27515.121550,1480.411884,9030.512492,-75537.016103
27515.124009,-888.247130,9918.759623,-74770.920605
27515.126468,3108.864956,14063.912898,-72625.853210
27515.128927,1480.411884,16136.489536,-73545.167808
27515.131386,4737.318029,14952.160028,-73085.510509
27515.133845,-444.123565,10658.965565,-74617.701505
27515.136304,2368.659014,6809.894666,-74311.263306
27515.138762,-5477.523971,5033.400406,-75077.358804
27515.141221,4737.318029,7846.182985,-75690.235202
27515.143639,2368.659014,11547.212695,-75690.235202
27515.146057,11695.253884,11399.171507,-75690.235202
27515.148475,888.247130,9770.718434,-74617.701505
27515.150893,5181.441594,3701.029710,-75383.797003
27515.153311,-12583.501014,6957.935855,-75383.797003
27515.155728,3108.864956,16728.654289,-74464.482406
27515.158146,4441.235652,15544.324782,-76456.330700
27515.160564,4589.276840,-888.247130,-75690.235202
27515.162982,1036.288319,-8438.347739,-75077.358804
27515.165400,-1332.370696,-4589.276840,-75690.235202
27515.167817,2812.782580,3552.988522,-77069.207099
27515.170235,9326.594869,5033.400406,-77835.302597
27515.172653,1776.494261,5181.441594,-75843.454302
27515.175071,5033.400406,2664.741391,-74158.044206
27515.177489,-7105.977043,3404.947333,-75383.797003
27515.179907,6365.771101,7698.141797,-75843.454302
27515.182324,-3108.864956,6513.812290,-76456.330700
27515.184742,5181.441594,7402.059420,-75383.797003
27515.187160,4737.318029,148.041188,-75383.797003
27515.189578,888.247130,-592.164754,-76303.111601
27515.191996,1480.411884,296.082377,-77528.864398
27515.194414,888.247130,8882.471304,-74464.482406
27515.196831,2960.823768,2368.659014,-77222.426198
27515.199249,2368.659014,7105.977043,-75230.577904
27515.201667,3404.947333,5477.523971,-75077.358804
27515.204085,1332.370696,3404.947333,-74770.920605
27515.206503,148.041188,4145.153275,-76609.549800
27515.208921,3108.864956,5181.441594,-75843.454302
27515.211338,2072.576638,4293.194464,-76609.549800
27515.213756,3552.988522,740.205942,-75537.016103
27515.216174,1924.535449,-2072.576638,-76762.768900
27515.218592,1184.329507,1480.411884,-74464.482406
27515.221010,2220.617826,1776.494261,-75996.673402
27515.223427,-888.247130,5773.606348,-76149.892501
27515.225845,-888.247130,1924.535449,-76609.549800
27515.228263,2220.617826,740.205942,-75230.577904
27515.230681,6513.812290,-1184.329507,-75077.358804
27515.233099,11695.253884,3552.988522,-75383.797003
27515.235517,-1184.329507,6365.771101,-76915.987999
27515.237934,-8290.306550,6365.771101,-75230.577904
27515.240410,444.123565,-444.123565,-76762.768900
27515.242886,-2516.700203,1184.329507,-74924.139704
27515.245362,4737.318029,14359.995275,-74311.263306
27515.247837,5033.400406,22354.219448,-74770.920605
27515.250313,-4885.359217,14656.077652,-75230.577904
27515.252789,9622.677246,10955.047942,-73851.606007
27515.255265,-5181.441594,4441.235652,-73851.606007
27515.257740,8438.347739,5921.647536,-75843.454302
27515.260216,1924.535449,10807.006753,-75383.797003
27515.262692,6365.771101,7994.224174,-76456.330700
27515.265168,-7105.977043,9178.553681,-74464.482406
27515.267644,1480.411884,9622.677246,-74311.263306
27515.270119,-1332.370696,10214.842000,-74617.701505
27515.272595,3404.947333,10510.924376,-75690.235202
27515.275071,5773.606348,13915.871710,-73238.729609
27515.277547,1924.535449,8438.347739,-74770.920605
27515.280022,-592.164754,11103.089130,-72932.291410
27515.282498,296.082377,5477.523971,-74617.701505
27515.284974,592.164754,7105.977043,-74924.139704
27515.287450,3108.864956,7994.224174,-75077.358804
27515.289926,2072.576638,8586.388927,-75383.797003
27515.292401,3701.029710,11695.253884,-75077.358804
27515.294877,740.205942,11843.295072,-75077.358804
27515.297353,3404.947333,14063.912898,-74158.044206
27515.299829,1776.494261,14952.160028,-73545.167808
27515.302304,1628.453072,8586.388927,-75383.797003
27515.304780,-1776.494261,9770.718434,-74158.044206
27515.307256,1036.288319,6513.812290,-74617.701505
27515.309732,1332.370696,8438.347739,-75077.358804
27515.312208,6661.853478,12287.418637,-75383.797003
27515.314683,11399.171507,10658.965565,-75230.577904
27515.317159,-1628.453072,7402.059420,-74004.825107
27515.319678,592.164754,3404.947333,-74464.482406
27515.322197,-10362.883188,12139.377449,-74464.482406
27515.324716,8290.306550,17912.983796,-75690.235202
27515.327234,3108.864956,9622.677246,-75996.673402
27515.329753,4441.235652,-1628.453072,-74924.139704
27515.332272,-592.164754,-6957.935855,-74158.044206
27515.334791,-296.082377,-3256.906145,-75996.673402
27515.337310,3404.947333,2368.659014,-77375.645298
27515.339829,10510.924376,6069.688724,-75843.454302
27515.342347,-1628.453072,2960.823768,-74770.920605
27515.344866,6069.688724,4441.235652,-74158.044206
27515.347385,-10658.965565,2220.617826,-75690.235202
27515.349904,6809.894666,9178.553681,-75383.797003
27515.352423,-3849.070898,5773.606348,-76149.892501
27515.354942,8290.306550,5033.400406,-75230.577904
27515.357460,2516.700203,-2664.741391,-75077.358804
27515.359979,888.247130,1036.288319,-76609.549800
27515.362498,2368.659014,4293.194464,-74770.920605
27515.365017,444.123565,4293.194464,-75537.016103
27515.367536,2812.782580,9770.718434,-75690.235202
27515.370055,2368.659014,5033.400406,-75383.797003
27515.372573,1924.535449,2812.782580,-74311.263306
27515.375092,1332.370696,1628.453072,-74311.263306
27515.377611,5329.482782,4885.359217,-76762.768900
27515.380130,-592.164754,3997.112087,-75077.358804
27515.382649,6957.935855,1776.494261,-74311.263306
27515.385167,-2664.741391,-4145.153275,-76303.111601
27515.387686,1184.329507,-444.123565,-75690.235202
27515.390205,2664.741391,1480.411884,-75537.016103
27515.392724,-5477.523971,5921.647536,-74924.139704
27515.395243,3997.112087,3108.864956,-76456.330700
27515.397762,-444.123565,-740.205942,-75537.016103
27515.400280,11695.253884,1924.535449,-74617.701505
27515.402799,148.041188,3108.864956,-75230.577904
27515.405318,3404.947333,10955.047942,-75383.797003
27515.407837,-5773.606348,3997.112087,-77222.426198
27515.410356,-2516.700203,-1776.494261,-75537.016103
27515.412875,4145.153275,4589.276840,-74311.263306
27515.415393,6217.729913,16728.654289,-75230.577904
27515.417912,592.164754,19985.560434,-75383.797003
27515.420461,1480.411884,13471.748144,-73545.167808
27515.423010,-148.041188,5625.565159,-73851.606007
27515.425559,8438.347739,7254.018232,-73698.386908
27515.428108,4293.194464,6957.935855,-75690.235202
27515.430657,2812.782580,9770.718434,-75996.673402
27515.433205,1924.535449,9622.677246,-75383.797003
27515.435754,-8142.265362,8882.471304,-74004.825107
27515.438303,2664.741391,9918.759623,-74004.825107
27515.440852,888.247130,10510.924376,-75996.673402
27515.443401,4885.359217,12879.583391,-75690.235202
27515.445950,3404.947333,10807.006753,-73698.386908
27515.448499,-2960.823768,10955.047942,-72932.291410
27515.451047,6365.771101,4441.235652,-74617.701505
27515.453596,-2220.617826,6217.729913,-74770.920605
27515.456145,3849.070898,10214.842000,-74311.263306
27515.458694,1628.453072,7994.224174,-74158.044206
27515.461243,4293.194464,10658.965565,-73851.606007
27515.463792,2812.782580,11843.295072,-73238.729609
27515.466341,444.123565,14063.912898,-73545.167808
27515.468890,1480.411884,13175.665768,-74464.482406
27515.471438,0.000000,10955.047942,-74617.701505
27515.473987,-592.164754,8290.306550,-75383.797003
27515.476536,148.041188,9622.677246,-73851.606007
27515.479085,5181.441594,8142.265362,-73698.386908
27515.481634,5477.523971,10362.883188,-75690.235202
27515.484183,5329.482782,8734.430116,-75537.016103
27515.486732,888.247130,2516.700203,-75537.016103
27515.489280,-7846.182985,5181.441594,-74770.920605
27515.491829,148.041188,15100.201217,-74464.482406
27515.494378,5477.523971,16580.613101,-75996.673402
27515.496927,3108.864956,3552.988522,-75843.454302
27515.499476,3108.864956,-3256.906145,-74158.044206
27515.502025,-296.082377,-5329.482782,-75230.577904
27515.504574,2368.659014,-888.247130,-77222.426198
27515.507122,4293.194464,2368.659014,-77682.083497
27515.509671,6069.688724,4293.194464,-75537.016103
27515.512220,2072.576638,3849.070898,-74311.263306
27515.514769,592.164754,4145.153275,-75077.358804
27515.517318,-2368.659014,3701.029710,-76609.549800
27515.519867,2072.576638,9178.553681,-75996.673402
27515.522438,2072.576638,5033.400406,-75690.235202
27515.525010,3552.988522,740.205942,-75996.673402
27515.527582,3849.070898,-740.205942,-75230.577904
27515.530153,-296.082377,3404.947333,-73238.729609
27515.532725,3404.947333,1480.411884,-74617.701505
27515.535296,-444.123565,9770.718434,-74617.701505
27515.537868,4885.359217,7105.977043,-75690.235202
27515.540439,1036.288319,-1036.288319,-75077.358804
27515.543011,4145.153275,2516.700203,-74464.482406
27515.545583,1332.370696,2516.700203,-76915.987999
27515.548154,3404.947333,5181.441594,-77375.645298
27515.550726,2368.659014,740.205942,-76609.549800
27515.553297,2664.741391,-888.247130,-75077.358804
27515.555869,-296.082377,-1628.453072,-75077.358804
27515.558440,296.082377,592.164754,-74617.701505
27515.561012,-2072.576638,3997.112087,-76456.330700
27515.563584,-740.205942,2220.617826,-76609.549800
27515.566155,9030.512492,-888.247130,-75383.797003
27515.568727,11399.171507,1776.494261,-74770.920605
27515.571298,-7402.059420,5773.606348,-74464.482406
27515.573870,8290.306550,9030.512492,-75537.016103
27515.576441,-4885.359217,4441.235652,-75230.577904
27515.579013,-2960.823768,1184.329507,-74770.920605
27515.581585,1924.535449,10214.842000,-74770.920605
27515.584156,9474.636058,18949.272115,-74770.920605
27515.586728,-4441.235652,17320.819043,-74617.701505
27515.589299,7105.977043,11695.253884,-73085.510509
27515.591871,-4885.359217,7846.182985,-73238.729609
27515.594442,12287.418637,5773.606348,-76915.987999
27515.597014,-1332.370696,8142.265362,-75996.673402
27515.599586,7698.141797,9178.553681,-75537.016103
27515.602157,-2368.659014,9918.759623,-74770.920605
27515.604729,-888.247130,9326.594869,-74617.701505
27515.607300,-3108.864956,12583.501014,-73698.386908
27515.609872,4145.153275,11251.130318,-73545.167808
27515.612443,1480.411884,11547.212695,-72779.072310
27515.615015,4589.276840,9178.553681,-72932.291410
27515.617587,2220.617826,3552.988522,-73851.606007
27515.620158,-2516.700203,9474.636058,-74158.044206
27515.622730,1480.411884,5033.400406,-75537.016103
27515.625250,2072.576638,6661.853478,-76456.330700
27515.627770,-7698.141797,12583.501014,-74924.139704
27515.630291,9622.677246,8290.306550,-77375.645298
27515.632811,-3256.906145,15840.407159,-75077.358804
27515.635331,3404.947333,11991.336260,-75996.673402
27515.637852,-4589.276840,15100.201217,-74617.701505
27515.640372,8142.265362,8142.265362,-75383.797003
27515.642893,-8290.306550,10807.006753,-74464.482406
27515.645413,14211.954086,10510.924376,-75690.235202
27515.647933,6069.688724,9474.636058,-73851.606007
27515.650454,2368.659014,9326.594869,-74770.920605
27515.652974,296.082377,1480.411884,-75383.797003
27515.655494,-7550.100608,7402.059420,-75383.797003
27515.658015,6217.729913,17468.860231,-74004.825107
27515.660535,1480.411884,14359.995275,-76149.892501
27515.663055,4589.276840,1776.494261,-75383.797003
27515.665576,0.000000,-4441.235652,-74311.263306
27515.668096,888.247130,-2960.823768,-75843.454302
27515.670616,2516.700203,1480.411884,-77682.083497
27515.673137,7550.100608,2812.782580,-78141.740796
27515.675657,3256.906145,3552.988522,-75996.673402
27515.678177,2960.823768,4293.194464,-73851.606007
27515.680698,-2812.782580,4145.153275,-75690.235202
27515.683218,-740.205942,5033.400406,-76609.549800
27515.685739,-444.123565,7994.224174,-76149.892501
27515.688259,6809.894666,3552.988522,-74617.701505
27515.690779,2220.617826,2368.659014,-72625.853210
27515.693300,2664.741391,592.164754,-73545.167808
27515.695820,-1036.288319,3552.988522,-74158.044206
27515.698340,4441.235652,3108.864956,-76609.549800
27515.700861,1036.288319,6957.935855,-76149.892501
27515.703381,2516.700203,8438.347739,-73698.386908
27515.705901,2072.576638,2368.659014,-74464.482406
27515.708422,3849.070898,4737.318029,-74311.263306
27515.710942,-148.041188,4589.276840,-74617.701505
27515.713462,2220.617826,3701.029710,-74617.701505
27515.715983,296.082377,592.164754,-74924.139704
27515.718503,1924.535449,-1776.494261,-75690.235202
27515.721023,-2072.576638,-1036.288319,-75077.358804
27515.723544,1184.329507,592.164754,-75996.673402
27515.726093,-1480.411884,3552.988522,-75690.235202
27515.728643,12139.377449,592.164754,-77222.426198
27515.731192,3108.864956,3552.988522,-75077.358804
27515.733742,4589.276840,6513.812290,-75230.577904
27515.736291,-4441.235652,5921.647536,-76149.892501
27515.738841,-740.205942,1480.411884,-77222.426198
27515.741390,-3849.070898,2812.782580,-74770.920605
27515.743939,6069.688724,15544.324782,-74617.701505
27515.746489,6365.771101,19245.354492,-75996.673402
27515.749038,-4589.276840,13915.871710,-74311.263306
27515.751588,7105.977043,10214.842000,-73238.729609
27515.754137,-3404.947333,7550.100608,-73085.510509
27515.756687,11399.171507,6661.853478,-76303.111601
27515.759236,0.000000,9622.677246,-75537.016103
27515.761786,6957.935855,7846.182985,-75690.235202
27515.764335,-4293.194464,9326.594869,-74004.825107
27515.766885,-1184.329507,10807.006753,-73851.606007
27515.769434,296.082377,12435.459826,-75077.358804
27515.771983,4145.153275,13767.830521,-75690.235202
27515.774533,5033.400406,12287.418637,-74464.482406
27515.777082,296.082377,6513.812290,-74924.139704
27515.779632,1776.494261,5773.606348,-75996.673402
27515.782181,-592.164754,11843.295072,-75843.454302
27515.784731,296.082377,8142.265362,-74158.044206
27515.787280,6365.771101,8290.306550,-74158.044206
27515.789830,-1036.288319,11547.212695,-75383.797003
27515.792379,3552.988522,10362.883188,-76609.549800
27515.794929,-1036.288319,14508.036463,-75077.358804
27515.797478,1036.288319,13027.624579,-75996.673402
27515.800027,-296.082377,12287.418637,-75383.797003
27515.802577,2960.823768,9326.594869,-75690.235202
27515.805126,592.164754,11695.253884,-73851.606007
27515.807676,14804.118840,8142.265362,-74924.139704
27515.810225,-7550.100608,6513.812290,-74770.920605
27515.812775,6365.771101,1924.535449,-75077.358804
27515.815324,-12139.377449,8438.347739,-74924.139704
27515.817874,7254.018232,19837.519246,-74158.044206
27515.820423,3849.070898,14359.995275,-75077.358804
27515.822973,2072.576638,3701.029710,-75383.797003
27515.825522,3404.947333,-5773.606348,-75383.797003
27515.828093,-4737.318029,-4885.359217,-76149.892501
27515.830665,6957.935855,1776.494261,-76915.987999
27515.833236,4737.318029,1924.535449,-76456.330700
27515.835808,3849.070898,3849.070898,-75843.454302
27515.838379,444.123565,3404.947333,-74617.701505
27515.840951,148.041188,5625.565159,-75230.577904
27515.843522,-4145.153275,3552.988522,-76456.330700
27515.846094,-888.247130,6513.812290,-75537.016103
27515.848665,6069.688724,2220.617826,-76456.330700
27515.851237,2368.659014,148.041188,-74617.701505
27515.853808,6661.853478,2516.700203,-73238.729609
27515.856380,-1036.288319,-2220.617826,-75537.016103
27515.858951,1184.329507,12583.501014,-74004.825107
27515.861523,1036.288319,5625.565159,-75843.454302
27515.864094,2368.659014,6513.812290,-73391.948708
27515.866666,2368.659014,3552.988522,-73238.729609
27515.869237,592.164754,3404.947333,-76456.330700
27515.871809,2368.659014,3256.906145,-78448.178995
27515.874380,592.164754,3108.864956,-76915.987999
27515.876952,3997.112087,-444.123565,-75843.454302
27515.879523,-2516.700203,-3849.070898,-75996.673402
27515.882095,3701.029710,-3108.864956,-76762.768900
27515.884666,-2812.782580,888.247130,-76303.111601
27515.887238,8438.347739,2220.617826,-76303.111601
27515.889809,6513.812290,3552.988522,-75230.577904
27515.892381,3108.864956,8734.430116,-74617.701505
27515.894952,-2072.576638,5329.482782,-74924.139704
27515.897524,-1924.535449,1776.494261,-75843.454302
27515.900095,-3849.070898,1480.411884,-74924.139704
27515.902667,4737.318029,12583.501014,-74158.044206
27515.905238,5477.523971,19689.478057,-75537.016103
27515.907810,-1628.453072,18061.024985,-75077.358804
27515.910381,6365.771101,11547.212695,-72012.976812
27515.912953,-2664.741391,7846.182985,-73085.510509
27515.915524,9622.677246,8438.347739,-76303.111601
27515.918096,2516.700203,9178.553681,-75843.454302
27515.920667,6513.812290,8142.265362,-75690.235202
27515.923239,-4145.153275,7994.224174,-74617.701505
27515.925810,-592.164754,7846.182985,-74617.701505
27515.928382,-2220.617826,11547.212695,-73545.167808
27515.930968,4589.276840,14656.077652,-76303.111601
27515.933554,7105.977043,13323.706956,-74617.701505
27515.936140,-1628.453072,2072.576638,-77069.207099
27515.938726,2664.741391,3552.988522,-74617.701505
27515.941313,-2812.782580,8734.430116,-75843.454302
27515.943899,4441.235652,8882.471304,-77222.426198
27515.946485,1924.535449,10510.924376,-75230.577904
27515.949071,296.082377,8438.347739,-75843.454302
27515.951657,2220.617826,10362.883188,-76609.549800
27515.954243,-148.041188,14952.160028,-75383.797003
27515.956829,1924.535449,14952.160028,-75077.358804
27515.959415,-1776.494261,12583.501014,-75077.358804
27515.962002,7846.182985,11399.171507,-74770.920605
27515.964588,5921.647536,8142.265362,-75077.358804
27515.967174,6809.894666,7105.977043,-74770.920605
27515.969760,-2516.700203,1036.288319,-76303.111601
27515.972346,-4737.318029,6661.853478,-75230.577904
27515.974932,1036.288319,13619.789333,-75690.235202
27515.977518,4441.235652,18505.148550,-75537.016103
27515.980104,3404.947333,3256.906145,-75843.454302
27515.982690,2664.741391,-2812.782580,-74158.044206
27515.985277,-3256.906145,-5181.441594,-74924.139704
27515.987863,2960.823768,-1036.288319,-75690.235202
27515.990449,2960.823768,2368.659014,-76762.768900
27515.993035,8586.388927,3108.864956,-75843.454302
27515.995621,-1628.453072,2960.823768,-74158.044206
27515.998207,2516.700203,4885.359217,-74311.263306
27516.000793,-8290.306550,5773.606348,-75690.235202
27516.003379,7550.100608,7698.141797,-76456.330700
27516.005966,-3108.864956,5625.565159,-76456.330700
27516.008552,9770.718434,148.041188,-75843.454302
27516.011138,-888.247130,-740.205942,-76609.549800
27516.013724,592.164754,5033.400406,-74924.139704
27516.016310,1480.411884,8142.265362,-75383.797003
27516.018896,2220.617826,8438.347739,-75230.577904
27516.021482,3849.070898,2072.576638,-76915.987999
27516.024068,1184.329507,2664.741391,-73698.386908
27516.026654,3849.070898,740.205942,-75077.358804
27516.029241,592.164754,4145.153275,-76609.549800
27516.031827,3552.988522,2220.617826,-77528.864398
27516.034424,148.041188,-296.082377,-74158.044206
27516.037021,-888.247130,-2960.823768,-75690.235202
27516.039617,-2368.659014,-3849.070898,-75383.797003
27516.042214,2960.823768,148.041188,-75996.673402
27516.044811,7698.141797,3256.906145,-75383.797003
27516.047408,3997.112087,5625.565159,-76149.892501
27516.050005,9326.594869,11103.089130,-74464.482406
27516.052602,-10658.965565,4441.235652,-75843.454302
27516.055199,1184.329507,-444.123565,-74617.701505
27516.057796,-2664.741391,4441.235652,-74158.044206
27516.060393,8586.388927,16284.530724,-75230.577904
27516.062990,1924.535449,20725.766376,-75843.454302
27516.065587,-3552.988522,13619.789333,-75383.797003
27516.068184,5625.565159,9622.677246,-73545.167808
27516.070781,-2812.782580,7402.059420,-72932.291410
27516.073377,9178.553681,9770.718434,-76149.892501
27516.075974,2812.782580,10955.047942,-76303.111601
27516.078571,3552.988522,7994.224174,-74311.263306
27516.081168,-2072.576638,7550.100608,-75077.358804
27516.083765,-888.247130,7254.018232,-74924.139704
27516.086362,-592.164754,14804.118840,-73085.510509
27516.088959,5921.647536,16728.654289,-72779.072310
27516.091556,1332.370696,10214.842000,-74464.482406
27516.094153,2220.617826,2516.700203,-74617.701505
27516.096750,1036.288319,11103.089130,-73851.606007
27516.099347,1628.453072,7698.141797,-75537.016103
27516.101944,1184.329507,8290.306550,-75843.454302
27516.104541,3552.988522,11399.171507,-74311.263306
27516.107137,2072.576638,9770.718434,-73851.606007
27516.109734,592.164754,14359.995275,-74004.825107
27516.112331,444.123565,12731.542202,-75230.577904
27516.114928,-1184.329507,13915.871710,-74311.263306
27516.117525,13323.706956,13619.789333,-75230.577904
27516.120122,2516.700203,8438.347739,-76303.111601
27516.122719,8882.471304,6661.853478,-73851.606007
27516.125316,-5773.606348,-592.164754,-76149.892501
27516.127913,-6809.894666,5477.523971,-75383.797003
27516.130510,-1184.329507,13323.706956,-75230.577904
27516.133107,7994.224174,18653.189738,-76303.111601
27516.135704,1480.411884,4145.153275,-76762.768900
27516.138306,3256.906145,-4145.153275,-73851.606007
27516.140910,-3997.112087,-5477.523971,-75537.016103
27516.143513,5477.523971,-444.123565,-76609.549800
27516.146116,4293.194464,1924.535449,-77375.645298
27516.148720,8142.265362,2516.700203,-74924.139704
27516.151323,-2220.617826,1480.411884,-74464.482406
27516.153926,3997.112087,3404.947333,-74004.825107
27516.156530,-6661.853478,5033.400406,-76303.111601
27516.159133,6661.853478,6809.894666,-75537.016103
27516.161736,-2812.782580,5329.482782,-73698.386908
27516.164340,5033.400406,-1480.411884,-74770.920605
27516.166943,2368.659014,-3552.988522,-74924.139704
27516.169546,-148.041188,3997.112087,-72932.291410
27516.172150,5329.482782,9770.718434,-76915.987999
27516.174753,592.164754,4293.194464,-77222.426198
27516.177357,2664.741391,6365.771101,-75383.797003
27516.179960,2368.659014,-444.123565,-75996.673402
27516.182563,2812.782580,3256.906145,-75843.454302
27516.185167,592.164754,3552.988522,-75996.673402
27516.187770,444.123565,1628.453072,-75996.673402
27516.190373,-1628.453072,-592.164754,-74617.701505
27516.192977,296.082377,-6069.688724,-76609.549800
27516.195580,3404.947333,-1332.370696,-75843.454302
27516.198183,4293.194464,2368.659014,-76149.892501
27516.200787,8586.388927,7550.100608,-75843.454302
27516.203390,3404.947333,8734.430116,-75077.358804
27516.205993,-3997.112087,7254.018232,-74464.482406
27516.208597,-1036.288319,-1924.535449,-76456.330700
27516.211200,-1480.411884,1628.453072,-74004.825107
27516.213803,5921.647536,15544.324782,-75230.577904
27516.216407,3849.070898,21465.972318,-76456.330700
27516.219010,-7105.977043,15248.242405,-74311.263306
27516.221614,9326.594869,10807.006753,-71859.757712
27516.224217,-5625.565159,4885.359217,-73085.510509
27516.226820,11991.336260,9030.512492,-75690.235202
27516.229424,2960.823768,9622.677246,-76456.330700
27516.232027,2368.659014,8882.471304,-76149.892501
27516.234630,-2812.782580,8142.265362,-73698.386908
27516.237234,3404.947333,7254.018232,-75537.016103
27516.239837,-4145.153275,13619.789333,-73545.167808
27516.242445,13471.748144,18801.230927,-73391.948708
27516.245052,-5329.482782,6217.729913,-76915.987999
27516.247660,14656.077652,2664.741391,-76762.768900
27516.250268,-6661.853478,4441.235652,-74464.482406
27516.252875,1184.329507,7846.182985,-74770.920605
27516.255483,9030.512492,10362.883188,-74770.920605
27516.258091,-2960.823768,13175.665768,-72625.853210
27516.260699,5773.606348,14804.118840,-73085.510509
27516.263306,-4441.235652,13027.624579,-74617.701505
27516.265914,888.247130,13619.789333,-74464.482406
27516.268522,1332.370696,14063.912898,-74311.263306
27516.271129,5773.606348,13767.830521,-74004.825107
27516.273737,11103.089130,7105.977043,-75230.577904
27516.276345,-1184.329507,2368.659014,-75383.797003
27516.278952,888.247130,1924.535449,-74617.701505
27516.281560,-12435.459826,10214.842000,-74464.482406
27516.284168,9326.594869,19245.354492,-75230.577904
27516.286775,4293.194464,12287.418637,-75690.235202
27516.289383,2368.659014,1480.411884,-74311.263306
27516.291991,3108.864956,-7105.977043,-75690.235202
27516.294599,-3552.988522,-3849.070898,-74924.139704
27516.297206,3108.864956,-740.205942,-78448.178995
27516.299814,11251.130318,3404.947333,-76915.987999
27516.302422,-1628.453072,2812.782580,-74004.825107
27516.305029,8734.430116,3108.864956,-74770.920605
27516.307637,-8734.430116,3552.988522,-74924.139704
27516.310245,3256.906145,6661.853478,-75383.797003
27516.312852,296.082377,4737.318029,-75690.235202
27516.315460,1924.535449,5921.647536,-73085.510509
27516.318068,4441.235652,888.247130,-73391.948708
27516.320675,-740.205942,-2072.576638,-75843.454302
27516.323283,1924.535449,8438.347739,-75383.797003
27516.325891,1776.494261,5033.400406,-77069.207099
27516.328499,888.247130,6365.771101,-75843.454302
27516.331106,3701.029710,4293.194464,-72779.072310
27516.333714,1036.288319,592.164754,-73545.167808
27516.336322,1480.411884,3108.864956,-74924.139704
27516.338929,1036.288319,-1036.288319,-75230.577904
27516.341537,-444.123565,592.164754,-75690.235202
27516.344145,-2072.576638,-6069.688724,-76456.330700
27516.346755,4441.235652,-3552.988522,-75843.454302
27516.349366,3256.906145,-148.041188,-75996.673402
27516.351976,10214.842000,7254.018232,-75537.016103
27516.354586,2960.823768,12731.542202,-74617.701505
27516.357197,-4145.153275,8142.265362,-75537.016103
27516.359807,-2072.576638,-1480.411884,-74924.139704
27516.362418,-2368.659014,2220.617826,-73391.948708
27516.365028,7550.100608,13767.830521,-75230.577904
27516.367639,3997.112087,21910.095883,-75690.235202
27516.370249,-5033.400406,18061.024985,-74464.482406
27516.372859,3256.906145,11695.253884,-72779.072310
27516.375470,-1776.494261,6365.771101,-72932.291410
27516.378080,7994.224174,7402.059420,-74311.263306
27516.380691,6661.853478,9622.677246,-76915.987999
27516.383301,-888.247130,8290.306550,-76149.892501
27516.385912,-4293.194464,9770.718434,-74770.920605
27516.388522,-1480.411884,8882.471304,-74158.044206
27516.391132,-740.205942,11843.295072,-74464.482406
27516.393743,7994.224174,20281.642811,-73085.510509
27516.396353,-1924.535449,5033.400406,-77222.426198
27516.398964,6217.729913,7698.141797,-74924.139704
27516.401574,-8142.265362,7550.100608,-73698.386908
27516.404185,16876.695478,3701.029710,-76456.330700
27516.406795,-9178.553681,14211.954086,-72472.634111
27516.409405,13915.871710,12287.418637,-72932.291410
27516.412016,-7846.182985,14952.160028,-74158.044206
27516.414626,5773.606348,13323.706956,-74924.139704
27516.417237,-6809.894666,12435.459826,-74770.920605
27516.419847,10658.965565,14952.160028,-74158.044206
27516.422458,2664.741391,9030.512492,-75230.577904
27516.425068,7550.100608,6809.894666,-74770.920605
27516.427678,3404.947333,-2072.576638,-75690.235202
27516.430289,-10066.800811,6365.771101,-73851.606007
27516.432899,5773.606348,15396.283594,-75690.235202
27516.435510,3701.029710,17468.860231,-75383.797003
27516.438120,5477.523971,5033.400406,-75383.797003
27516.440731,-148.041188,-3701.029710,-74311.263306
27516.443341,-1776.494261,-5329.482782,-75230.577904
27516.445951,1332.370696,-2664.741391,-77069.207099
27516.448562,4589.276840,2664.741391,-77835.302597
27516.451121,8586.388927,2220.617826,-75537.016103
27516.453681,-888.247130,3404.947333,-74158.044206
27516.456241,0.000000,3108.864956,-74924.139704
27516.458800,-4441.235652,6217.729913,-74770.920605
27516.461360,-1036.288319,6513.812290,-75383.797003
27516.463920,5329.482782,5181.441594,-76149.892501
27516.466479,3701.029710,-1628.453072,-77988.521696
27516.469039,4145.153275,-6069.688724,-76303.111601
27516.471599,-3997.112087,6661.853478,-74770.920605
27516.474158,4589.276840,3256.906145,-75537.016103
27516.476718,-1924.535449,5773.606348,-77069.207099
27516.479278,4885.359217,4145.153275,-76303.111601
27516.481837,888.247130,-444.123565,-75077.358804
27516.484397,1628.453072,3404.947333,-75077.358804
27516.486957,1480.411884,-444.123565,-76915.987999
27516.489516,-4293.194464,-1036.288319,-75537.016103
27516.492076,2072.576638,-5477.523971,-75537.016103
27516.494635,5477.523971,-3849.070898,-76149.892501
27516.497195,6661.853478,592.164754,-75230.577904
27516.499755,1628.453072,6217.729913,-75690.235202
27516.502314,6661.853478,14656.077652,-75383.797003
27516.504874,-6365.771101,7254.018232,-76303.111601
27516.507434,-1332.370696,-1628.453072,-75383.797003
27516.509993,-148.041188,6661.853478,-73698.386908
27516.512553,7698.141797,16728.654289,-75383.797003
27516.515113,1332.370696,19541.436869,-76149.892501
27516.517672,-1776.494261,15248.242405,-74617.701505
27516.520232,592.164754,8734.430116,-73238.729609
27516.522792,3552.988522,8438.347739,-73391.948708
27516.525351,6661.853478,6809.894666,-75230.577904
27516.527911,4441.235652,11695.253884,-74770.920605
27516.530471,-740.205942,7550.100608,-75383.797003
27516.533030,-7846.182985,10362.883188,-73391.948708
27516.535590,4589.276840,8142.265362,-75690.235202
27516.538149,-5921.647536,11103.089130,-76456.330700
27516.540709,13323.706956,11695.253884,-76149.892501
27516.543269,-1184.329507,6513.812290,-75383.797003
27516.545828,6957.935855,4145.153275,-75996.673402
27516.548388,-2960.823768,6809.894666,-76609.549800
27516.550948,1332.370696,9030.512492,-75996.673402
27516.553520,7550.100608,11695.253884,-75230.577904
27516.556091,-2220.617826,14063.912898,-74924.139704
27516.558663,3997.112087,16136.489536,-74770.920605
27516.561235,-1628.453072,13767.830521,-74924.139704
27516.563807,5625.565159,15988.448347,-73391.948708
27516.566379,2960.823768,10362.883188,-75383.797003
27516.568950,6513.812290,6217.729913,-75690.235202
27516.571522,296.082377,1036.288319,-75690.235202
27516.574094,-9474.636058,6217.729913,-74311.263306
27516.576666,5625.565159,14063.912898,-75690.235202
27516.579238,1480.411884,17172.777854,-75383.797003
27516.581810,3849.070898,4441.235652,-76303.111601
27516.584381,3108.864956,-1036.288319,-73851.606007
27516.586953,-4145.153275,-3404.947333,-75230.577904
27516.589525,8586.388927,-1776.494261,-77375.645298
27516.592097,1776.494261,1332.370696,-76762.768900
27516.594669,9474.636058,1628.453072,-75996.673402
27516.597240,-3108.864956,2664.741391,-74004.825107
27516.599812,1924.535449,3108.864956,-74464.482406
27516.602384,444.123565,6217.729913,-76456.330700
27516.604956,-1332.370696,6365.771101,-77528.864398
27516.607528,7402.059420,5329.482782,-76149.892501
27516.610100,-148.041188,4293.194464,-73698.386908
27516.612671,6513.812290,-4145.153275,-77222.426198
27516.615243,-5181.441594,7994.224174,-74770.920605
27516.617815,1184.329507,8142.265362,-75230.577904
27516.620387,5921.647536,2664.741391,-76303.111601
27516.622959,-1184.329507,4145.153275,-74924.139704
27516.625530,4589.276840,-296.082377,-76149.892501
27516.628102,148.041188,1184.329507,-75843.454302
27516.630674,1480.411884,-888.247130,-76762.768900
27516.633246,-1924.535449,-3997.112087,-76609.549800
27516.635827,4293.194464,-6513.812290,-76149.892501
27516.638409,7254.018232,-3404.947333,-74924.139704
27516.640990,7698.141797,2664.741391,-75230.577904
27516.643572,1628.453072,12139.377449,-74617.701505
27516.646153,-9326.594869,11103.089130,-75230.577904
27516.648735,740.205942,888.247130,-75690.235202
27516.651316,-2220.617826,3108.864956,-73085.510509
27516.653897,6809.894666,11695.253884,-74464.482406
27516.656479,2960.823768,21762.054695,-75537.016103
27516.659060,-1036.288319,17468.860231,-75690.235202
27516.661642,2072.576638,13767.830521,-73085.510509
27516.664223,-3849.070898,5773.606348,-73085.510509
27516.666805,13027.624579,7698.141797,-75843.454302
27516.669386,444.123565,9030.512492,-76303.111601
27516.671967,7698.141797,9178.553681,-75843.454302
27516.674549,-2664.741391,10066.800811,-74617.701505
27516.677130,-1332.370696,7698.141797,-73238.729609
27516.679712,-2072.576638,10066.800811,-73085.510509
27516.682293,4293.194464,16432.571912,-72625.853210
27516.684875,2812.782580,6069.688724,-74158.044206
27516.687456,3997.112087,5773.606348,-75690.235202
27516.690037,592.164754,7254.018232,-76456.330700
27516.692619,-4145.153275,8586.388927,-76303.111601
27516.695200,7105.977043,12435.459826,-74464.482406
27516.697782,-5033.400406,14508.036463,-73545.167808
27516.700363,9178.553681,17024.736666,-74770.920605
27516.702945,-3701.029710,15100.201217,-74617.701505
27516.705526,6809.894666,17912.983796,-73851.606007
27516.708107,8734.430116,9178.553681,-75077.358804
27516.710689,592.164754,5181.441594,-74924.139704
27516.713270,2072.576638,-740.205942,-75383.797003
27516.715852,-8438.347739,3997.112087,-75383.797003
27516.718433,4293.194464,14359.995275,-74617.701505
27516.721015,3552.988522,15840.407159,-75383.797003
27516.723596,2812.782580,3849.070898,-75230.577904
27516.726177,2072.576638,-2072.576638,-74004.825107
27516.728759,-4145.153275,-2812.782580,-75383.797003
27516.731340,7550.100608,-2220.617826,-77069.207099
27516.733922,2960.823768,1776.494261,-77069.207099
27516.736503,8142.265362,1184.329507,-75383.797003
27516.739091,-1628.453072,3404.947333,-73545.167808
27516.741680,2072.576638,2368.659014,-74924.139704
27516.744268,-3997.112087,7402.059420,-75690.235202
27516.746856,-296.082377,6957.935855,-77375.645298
27516.749445,6513.812290,3256.906145,-74004.825107
27516.752033,148.041188,4589.276840,-74770.920605
27516.754621,5625.565159,-444.123565,-74617.701505
27516.757210,-740.205942,2516.700203,-76149.892501
27516.759798,-148.041188,9474.636058,-75690.235202
27516.762386,3256.906145,5181.441594,-74770.920605
27516.764974,1480.411884,4145.153275,-75537.016103
27516.767563,2072.576638,592.164754,-76762.768900
27516.770151,592.164754,-1184.329507,-76915.987999
27516.772739,-592.164754,-2368.659014,-75996.673402
27516.775328,444.123565,-4293.194464,-75230.577904
27516.777916,6513.812290,-6365.771101,-75996.673402
27516.780504,7254.018232,-888.247130,-75383.797003
27516.783093,1332.370696,6069.688724,-75077.358804
27516.785681,5773.606348,11695.253884,-75077.358804
27516.788269,-5329.482782,8438.347739,-75230.577904
27516.790857,-2368.659014,-1776.494261,-76303.111601
27516.793446,6957.935855,9770.718434,-73545.167808
27516.796034,2812.782580,14211.954086,-75690.235202
27516.798622,2220.617826,18801.230927,-75537.016103
27516.801211,-1924.535449,13915.871710,-74158.044206
27516.803799,0.000000,10066.800811,-73851.606007
27516.806387,5477.523971,7846.182985,-74004.825107
27516.808976,4885.359217,6661.853478,-76456.330700
27516.811564,5921.647536,12435.459826,-75690.235202
27516.814152,-2368.659014,8438.347739,-75077.358804
27516.816740,-4441.235652,12879.583391,-72166.195912
27516.819329,-1036.288319,9770.718434,-73851.606007
27516.821917,-444.123565,16284.530724,-72472.634111
27516.824505,9326.594869,6513.812290,-75690.235202
27516.827094,1924.535449,5477.523971,-74004.825107
27516.829682,2072.576638,6513.812290,-76149.892501
27516.832270,1184.329507,9178.553681,-75230.577904
27516.834859,444.123565,10510.924376,-72472.634111
27516.837447,2516.700203,14063.912898,-71553.319513
27516.840035,592.164754,17616.901420,-73391.948708
27516.842627,4441.235652,15248.242405,-74158.044206
27516.845219,2072.576638,18357.107362,-73545.167808
27516.847812,8290.306550,11103.089130,-74004.825107
27516.850404,-2664.741391,5329.482782,-74311.263306
27516.852996,3701.029710,-444.123565,-75383.797003
27516.855588,-6365.771101,5625.565159,-75077.358804
27516.858180,5181.441594,17764.942608,-73851.606007
27516.860772,5625.565159,12731.542202,-75537.016103
27516.863364,-444.123565,2960.823768,-74924.139704
27516.865957,2516.700203,-3404.947333,-74464.482406
27516.868549,-5477.523971,-2960.823768,-76149.892501
27516.871141,9326.594869,-888.247130,-77528.864398
27516.873733,888.247130,1332.370696,-76915.987999
27516.876325,6661.853478,1332.370696,-75843.454302
27516.878917,-3256.906145,2072.576638,-74004.825107
27516.881509,2220.617826,3108.864956,-75230.577904
27516.884102,-1184.329507,5625.565159,-76609.549800
27516.886694,-888.247130,5477.523971,-76915.987999
27516.889286,2664.741391,1036.288319,-76456.330700
27516.891878,2516.700203,2072.576638,-74158.044206
27516.894470,1628.453072,1480.411884,-75077.358804
27516.897062,3701.029710,5625.565159,-75383.797003
27516.899654,-592.164754,7105.977043,-76303.111601
27516.902246,-296.082377,4293.194464,-76609.549800
27516.904839,2368.659014,-1184.329507,-75996.673402
27516.907431,1628.453072,2516.700203,-75843.454302
27516.910023,1184.329507,-2220.617826,-77835.302597
27516.912615,-2220.617826,-888.247130,-75383.797003
27516.915207,4145.153275,-6809.894666,-76456.330700
27516.917799,3108.864956,888.247130,-73698.386908
27516.920391,9770.718434,-592.164754,-75996.673402
27516.922984,-1332.370696,12139.377449,-73698.386908
27516.925576,-740.205942,9326.594869,-76149.892501
27516.928168,-4145.153275,2368.659014,-76456.330700
27516.930760,2072.576638,4145.153275,-74004.825107
27516.933352,2516.700203,14063.912898,-74464.482406
27516.935944,6513.812290,20133.601622,-75843.454302
27516.938536,-2812.782580,13175.665768,-75383.797003
27516.941128,3849.070898,12879.583391,-72932.291410
27516.943721,-2220.617826,5033.400406,-74311.263306
27516.946315,8290.306550,8882.471304,-75690.235202
27516.948910,2812.782580,7698.141797,-75690.235202
27516.951505,7994.224174,10658.965565,-75383.797003
27516.954100,-1924.535449,8882.471304,-74617.701505
27516.956695,0.000000,10955.047942,-73085.510509
27516.959289,-3849.070898,17024.736666,-74311.263306
27516.961884,8882.471304,4885.359217,-76762.768900
27516.964479,-444.123565,5625.565159,-74924.139704
27516.967074,2960.823768,9178.553681,-75230.577904
27516.969669,-592.164754,8438.347739,-77069.207099
27516.972263,-2516.700203,9770.718434,-76762.768900
27516.974858,5773.606348,14804.118840,-75077.358804
27516.977453,-4145.153275,15544.324782,-74311.263306
27516.980048,4885.359217,17616.901420,-73085.510509
27516.982643,296.082377,17024.736666,-73391.948708
27516.985237,12435.459826,12139.377449,-73391.948708
27516.987832,-7846.182985,3552.988522,-74770.920605
27516.990427,6513.812290,-740.205942,-75690.235202
27516.993022,-11695.253884,3404.947333,-75230.577904
27516.995616,9622.677246,15840.407159,-75230.577904
27516.998211,740.205942,13175.665768,-76609.549800
27517.000806,3404.947333,2368.659014,-74464.482406
27517.003401,-296.082377,-4589.276840,-75077.358804
27517.005996,-3108.864956,-2220.617826,-75843.454302
27517.008590,7994.224174,-148.041188,-77835.302597
27517.011185,7105.977043,1036.288319,-76609.549800
27517.013780,5033.400406,1776.494261,-74617.701505
27517.016375,-592.164754,296.082377,-74004.825107
27517.018970,740.205942,4145.153275,-75077.358804
27517.021564,148.041188,4293.194464,-77069.207099
27517.024159,1036.288319,9030.512492,-74311.263306
27517.026754,1776.494261,6957.935855,-72932.291410
27517.029349,4145.153275,-3552.988522,-76149.892501
27517.031944,3552.988522,3997.112087,-75230.577904
27517.034538,-3552.988522,10658.965565,-75383.797003
27517.037133,4145.153275,2368.659014,-77375.645298
27517.039728,-592.164754,5033.400406,-75537.016103
27517.042323,5033.400406,-1776.494261,-75690.235202
27517.044918,-2368.659014,1332.370696,-75996.673402
27517.047512,1036.288319,-5625.565159,-77069.207099
27517.050109,-1184.329507,-2220.617826,-76149.892501
27517.052706,5329.482782,-4441.235652,-76303.111601
27517.055302,9030.512492,-592.164754,-75996.673402
27517.057899,-1036.288319,5329.482782,-75537.016103
27517.060495,3849.070898,9178.553681,-75537.016103
27517.063092,-7402.059420,6513.812290,-74770.920605
27517.065689,592.164754,740.205942,-74924.139704
27517.068285,1036.288319,14063.912898,-73391.948708
27517.070882,5921.647536,17616.901420,-75690.235202
27517.073479,-1924.535449,17320.819043,-75077.358804
27517.076075,6365.771101,11103.089130,-73545.167808
27517.078672,-3404.947333,4293.194464,-75383.797003
27517.081269,9918.759623,9918.759623,-74617.701505
27517.083865,2368.659014,6069.688724,-77222.426198
27517.086462,7402.059420,12879.583391,-75690.235202
27517.089058,-2960.823768,8142.265362,-75077.358804
27517.091655,-1332.370696,14211.954086,-71553.319513
27517.094252,1628.453072,17320.819043,-74004.825107
27517.096848,0.000000,4441.235652,-76915.987999
27517.099445,10214.842000,8438.347739,-75996.673402
27517.102042,-8586.388927,11547.212695,-73085.510509
27517.104638,12435.459826,7550.100608,-76456.330700
27517.107235,-13175.665768,11251.130318,-75383.797003
27517.109832,15100.201217,14211.954086,-73085.510509
27517.112428,-12583.501014,17024.736666,-73238.729609
27517.115025,13767.830521,16876.695478,-74311.263306
27517.117621,-1036.288319,17616.901420,-74311.263306
27517.120218,14952.160028,9918.759623,-75230.577904
27517.122815,-11251.130318,3404.947333,-75077.358804
27517.125411,6809.894666,-888.247130,-76609.549800
27517.128008,-12583.501014,6069.688724,-75077.358804
27517.130605,10362.883188,16284.530724,-74617.701505
27517.133201,5033.400406,10214.842000,-76149.892501
27517.135798,2812.782580,740.205942,-75690.235202
27517.138394,444.123565,-4441.235652,-75230.577904
27517.140991,-3997.112087,-1628.453072,-76303.111601
27517.143588,5477.523971,1332.370696,-77682.083497
27517.146184,5033.400406,1332.370696,-76915.987999
27517.148781,5033.400406,1776.494261,-75537.016103
27517.151378,-444.123565,444.123565,-74004.825107
27517.153972,-1628.453072,3997.112087,-75230.577904
27517.156570,-888.247130,5773.606348,-73851.606007
27517.159167,1332.370696,4145.153275,-74158.044206
27517.161765,1776.494261,2368.659014,-74924.139704
27517.164362,3404.947333,1480.411884,-74158.044206
27517.166959,592.164754,5477.523971,-73545.167808
27517.169557,0.000000,10362.883188,-74311.263306
27517.172154,1924.535449,2664.741391,-75690.235202
27517.174752,1332.370696,4293.194464,-75537.016103
27517.177349,-740.205942,1628.453072,-74158.044206
27517.179946,2072.576638,-3701.029710,-76915.987999
27517.182544,-3849.070898,-3849.070898,-75843.454302
27517.185141,9178.553681,-6957.935855,-76456.330700
27517.187739,2960.823768,-592.164754,-74464.482406
27517.190336,7402.059420,-888.247130,-76149.892501
27517.192933,2072.576638,10510.924376,-75383.797003
27517.195531,-5033.400406,6957.935855,-75843.454302
27517.198128,-1628.453072,1924.535449,-75690.235202
27517.200726,1184.329507,9030.512492,-74617.701505
27517.203323,7846.182985,18061.024985,-74311.263306
27517.205920,2220.617826,21762.054695,-75230.577904
27517.208518,-2664.741391,14952.160028,-74464.482406
27517.211115,3849.070898,10807.006753,-72779.072310
27517.213713,-2664.741391,4737.318029,-73698.386908
27517.216310,7105.977043,9770.718434,-75077.358804
27517.218908,4145.153275,9178.553681,-75690.235202
27517.221505,2664.741391,9178.553681,-75690.235202
27517.224102,-1480.411884,13471.748144,-72625.853210
27517.226700,2072.576638,12287.418637,-74924.139704
27517.229297,-7550.100608,7402.059420,-75996.673402
27517.231895,7698.141797,11547.212695,-74464.482406
27517.234492,9474.636058,3108.864956,-73698.386908
27517.237089,-8290.306550,8438.347739,-75537.016103
27517.239687,4145.153275,9474.636058,-75996.673402
27517.242284,-1036.288319,9622.677246,-74311.263306
27517.244882,3404.947333,18061.024985,-74158.044206
27517.247479,6217.729913,17764.942608,-73698.386908
27517.250076,296.082377,19689.478057,-74311.263306
27517.252674,12583.501014,11251.130318,-74617.701505
27517.255271,-5033.400406,7402.059420,-74770.920605
27517.257825,3701.029710,-1184.329507,-76456.330700
27517.260379,-12879.583391,3849.070898,-75690.235202
27517.262933,8734.430116,19097.313304,-73545.167808
27517.265487,6069.688724,7550.100608,-76762.768900
27517.268040,888.247130,1036.288319,-74770.920605
27517.270594,-444.123565,-4145.153275,-74004.825107
27517.273148,-888.247130,-2516.700203,-76149.892501
27517.275702,4737.318029,888.247130,-77375.645298
27517.278256,2960.823768,5329.482782,-75690.235202
27517.280810,6217.729913,0.000000,-75690.235202
27517.283363,1924.535449,592.164754,-73545.167808
27517.285917,-740.205942,2664.741391,-75690.235202
27517.288471,-1332.370696,3108.864956,-76915.987999
27517.291025,2516.700203,6069.688724,-75230.577904
27517.293579,3701.029710,-148.041188,-76303.111601
27517.296133,2960.823768,1776.494261,-75077.358804
27517.298686,-296.082377,6957.935855,-73391.948708
27517.301240,592.164754,7994.224174,-74770.920605
27517.303794,4737.318029,5329.482782,-74158.044206
27517.306348,296.082377,3552.988522,-73391.948708
27517.308902,2368.659014,444.123565,-75230.577904
27517.311456,-1332.370696,-3701.029710,-76149.892501
27517.314010,444.123565,-5329.482782,-76609.549800
27517.316563,5329.482782,-7105.977043,-75996.673402
27517.319117,4145.153275,-888.247130,-74770.920605
27517.321671,4441.235652,1776.494261,-75690.235202
27517.324225,3256.906145,11991.336260,-75843.454302
27517.326779,-4293.194464,4737.318029,-76149.892501
27517.329333,296.082377,444.123565,-75690.235202
27517.331886,740.205942,13323.706956,-73391.948708
27517.334440,8142.265362,19097.313304,-76456.330700
27517.336994,-2960.823768,20429.683999,-74617.701505
27517.339548,0.000000,11843.295072,-74004.825107
27517.342102,-444.123565,7550.100608,-73545.167808
27517.344656,10362.883188,8438.347739,-74158.044206
27517.347209,3849.070898,7402.059420,-76609.549800
27517.349763,6069.688724,12139.377449,-75383.797003
27517.352317,-1332.370696,9326.594869,-74464.482406
27517.354871,-6365.771101,10214.842000,-74158.044206
27517.357425,2664.741391,7402.059420,-75996.673402
27517.359988,-148.041188,16876.695478,-72472.634111
27517.362551,3256.906145,9474.636058,-74770.920605
27517.365114,10807.006753,10214.842000,-73851.606007
27517.367677,-4145.153275,11103.089130,-74004.825107
27517.370239,1628.453072,10214.842000,-76149.892501
27517.372802,-2220.617826,14952.160028,-74617.701505
27517.375365,7550.100608,15396.283594,-74617.701505
27517.377928,1628.453072,20133.601622,-74617.701505
27517.380491,9622.677246,14804.118840,-75077.358804
27517.383054,-2960.823768,10362.883188,-74617.701505
27517.385617,-740.205942,148.041188,-75537.016103
27517.388180,-9622.677246,3256.906145,-75690.235202
27517.390743,6513.812290,13471.748144,-75383.797003
27517.393306,5329.482782,13175.665768,-75996.673402
27517.395869,1184.329507,2960.823768,-74924.139704
27517.398432,2072.576638,-3404.947333,-74004.825107
27517.400995,-7402.059420,-3701.029710,-74617.701505
27517.403558,11695.253884,-888.247130,-76456.330700
27517.406121,-740.205942,4885.359217,-76609.549800
27517.408684,12139.377449,740.205942,-75843.454302
27517.411246,-1924.535449,1332.370696,-73851.606007
27517.413809,0.000000,-888.247130,-75537.016103
27517.416372,-888.247130,1776.494261,-76609.549800
27517.418935,-1628.453072,8290.306550,-74770.920605
27517.421498,4145.153275,592.164754,-75843.454302
27517.424061,12583.501014,4293.194464,-74770.920605
27517.426624,-8142.265362,9918.759623,-73545.167808
27517.429187,9918.759623,2960.823768,-75230.577904
27517.431750,-4145.153275,4441.235652,-76456.330700
27517.434313,444.123565,2368.659014,-76303.111601
27517.436876,11695.253884,-1480.411884,-75843.454302
27517.439439,-13915.871710,-1776.494261,-75077.358804
27517.442002,17172.777854,-8734.430116,-77069.207099
27517.444565,-3997.112087,-3404.947333,-74311.263306
27517.447128,15248.242405,-2220.617826,-76149.892501
27517.449690,-7698.141797,7550.100608,-75843.454302
27517.452253,6217.729913,8142.265362,-76149.892501
27517.454816,-6365.771101,6513.812290,-75077.358804
27517.457379,740.205942,3849.070898,-73545.167808
27517.459942,4145.153275,18949.272115,-72779.072310
27517.462513,3997.112087,21910.095883,-76609.549800
27517.465083,-1924.535449,19985.560434,-74311.263306
27517.467653,3997.112087,10807.006753,-74158.044206
27517.470223,-3108.864956,2960.823768,-74004.825107
27517.472794,8290.306550,7994.224174,-75537.016103
27517.475364,3552.988522,5921.647536,-76456.330700
27517.477934,1628.453072,12287.418637,-74924.139704
27517.480505,-2516.700203,8438.347739,-74617.701505
27517.483075,-3997.112087,10066.800811,-72779.072310
27517.485645,1184.329507,17024.736666,-72166.195912
27517.488215,740.205942,4441.235652,-74464.482406
27517.490786,-1184.329507,10658.965565,-74311.263306
27517.493356,6809.894666,10807.006753,-74158.044206
27517.495926,1776.494261,8290.306550,-75996.673402
27517.498497,-592.164754,13915.871710,-75537.016103
27517.501067,5033.400406,15692.365970,-74464.482406
27517.503637,-1480.411884,21021.848753,-73545.167808
27517.506207,13471.748144,15988.448347,-75690.235202
27517.508778,-1776.494261,15248.242405,-73698.386908
27517.511348,3997.112087,-148.041188,-76303.111601
27517.513918,-11251.130318,1332.370696,-74311.263306
27517.516489,3256.906145,8142.265362,-75077.358804
27517.519059,3256.906145,16284.530724,-74464.482406
27517.521629,7698.141797,4589.276840,-75843.454302
27517.524199,0.000000,-3256.906145,-74311.263306
27517.526770,-2368.659014,-4885.359217,-74770.920605
27517.529340,1480.411884,-1776.494261,-76609.549800
27517.531910,1924.535449,4293.194464,-77222.426198
27517.534481,8734.430116,1480.411884,-76303.111601
27517.537051,1184.329507,4885.359217,-73545.167808
27517.539621,296.082377,-1776.494261,-74158.044206
27517.542191,888.247130,1924.535449,-77222.426198
27517.544762,-888.247130,5625.565159,-76609.549800
27517.547332,4441.235652,9622.677246,-74617.701505
27517.549902,2516.700203,-296.082377,-77682.083497
27517.552473,5625.565159,2220.617826,-75996.673402
27517.555043,-2072.576638,2072.576638,-76762.768900
27517.557613,4293.194464,6513.812290,-75230.577904
27517.560183,-2664.741391,1628.453072,-74311.263306
27517.562754,4145.153275,1628.453072,-76609.549800
27517.565329,-1628.453072,-3849.070898,-76915.987999
27517.567904,4293.194464,-6513.812290,-75537.016103
27517.570479,5033.400406,-6365.771101,-76149.892501
27517.573054,8734.430116,-1184.329507,-76456.330700
27517.575629,444.123565,5625.565159,-75996.673402
27517.578204,-1480.411884,8142.265362,-75537.016103
27517.580779,-1036.288319,6069.688724,-75383.797003
27517.583354,-1184.329507,1924.535449,-74770.920605
27517.585929,3849.070898,19097.313304,-73238.729609
27517.588504,4293.194464,21762.054695,-74924.139704
27517.591080,-2220.617826,21910.095883,-74924.139704
27517.593655,2516.700203,10362.883188,-73698.386908
27517.596230,-1480.411884,5033.400406,-73545.167808
27517.598805,6809.894666,6069.688724,-75230.577904
27517.601380,7105.977043,7402.059420,-77069.207099
27517.603955,1480.411884,12731.542202,-74311.263306
27517.606530,3404.947333,10807.006753,-74770.920605
27517.609105,-4293.194464,10510.924376,-74924.139704
27517.611680,4737.318029,11399.171507,-74770.920605
27517.614255,-3404.947333,6513.812290,-75537.016103
27517.616830,5625.565159,10510.924376,-73238.729609
27517.619405,1924.535449,10807.006753,-75996.673402
27517.621980,-296.082377,9030.512492,-77222.426198
27517.624555,2220.617826,12879.583391,-74004.825107
27517.627131,-1184.329507,15248.242405,-73085.510509
27517.629706,6957.935855,19985.560434,-74770.920605
27517.632281,6069.688724,16284.530724,-75077.358804
27517.634856,2960.823768,12731.542202,-74924.139704
27517.637431,740.205942,-888.247130,-76915.987999
27517.640006,-9326.594869,592.164754,-75383.797003
27517.642581,5329.482782,9770.718434,-75690.235202
27517.645156,3849.070898,10362.883188,-76149.892501
27517.647731,1332.370696,2368.659014,-75230.577904
27517.650306,4441.235652,-3552.988522,-74770.920605
27517.652881,-6069.688724,-5033.400406,-74770.920605
27517.655456,7994.224174,148.041188,-76456.330700
27517.658031,-148.041188,4441.235652,-76609.549800
27517.660606,12287.418637,2072.576638,-75843.454302
27517.663182,1480.411884,3404.947333,-73698.386908
27517.665757,-6513.812290,1036.288319,-75690.235202
27517.668336,2812.782580,1924.535449,-77069.207099
27517.670915,-1924.535449,6217.729913,-77835.302597
27517.673494,6809.894666,888.247130,-79214.274493
27517.676073,2220.617826,7105.977043,-76762.768900
27517.678652,3997.112087,4441.235652,-75996.673402
27517.681231,2812.782580,3404.947333,-74924.139704
27517.683810,-1184.329507,4145.153275,-75383.797003
27517.686389,4441.235652,-1480.411884,-75537.016103
27517.688968,-1628.453072,-296.082377,-75383.797003
27517.691547,5625.565159,-8142.265362,-77835.302597
27517.694126,-444.123565,-5477.523971,-74464.482406
27517.696705,11399.171507,-6217.729913,-76456.330700
27517.699284,-2664.741391,4293.194464,-74924.139704
27517.701863,5477.523971,7994.224174,-76303.111601
27517.704442,-7846.182985,8438.347739,-75537.016103
27517.707021,4885.359217,-1332.370696,-75996.673402
27517.709600,-444.123565,14359.995275,-72012.976812
27517.712179,7698.141797,19097.313304,-75383.797003
27517.714759,-2220.617826,22650.301825,-74617.701505
27517.717338,-1036.288319,13915.871710,-74464.482406
27517.719917,2368.659014,8142.265362,-73238.729609
27517.722496,592.164754,4441.235652,-74158.044206
27517.725075,8882.471304,6661.853478,-75843.454302
27517.727654,1776.494261,7994.224174,-75383.797003
27517.730233,9326.594869,12583.501014,-74004.825107
27517.732812,-5921.647536,14508.036463,-74464.482406
27517.735391,444.123565,7254.018232,-75537.016103
27517.737970,-6217.729913,13323.706956,-74617.701505
27517.740549,15988.448347,6957.935855,-74617.701505
27517.743128,-6809.894666,10955.047942,-74464.482406
27517.745707,9474.636058,10658.965565,-75996.673402
27517.748286,-5625.565159,10066.800811,-75690.235202
27517.750865,-3849.070898,16580.613101,-73238.729609
27517.753444,12731.542202,18653.189738,-73698.386908
27517.756023,-1036.288319,19245.354492,-73698.386908
27517.758602,8882.471304,9770.718434,-75843.454302
27517.761181,-5329.482782,4589.276840,-74770.920605
27517.763761,-6809.894666,1480.411884,-75690.235202
27517.766340,-1480.411884,11547.212695,-75383.797003
27517.768919,10510.924376,11547.212695,-76915.987999
27517.771501,-3108.864956,2368.659014,-74004.825107
27517.774083,5921.647536,-5329.482782,-75230.577904
27517.776665,-9474.636058,-3997.112087,-76149.892501
27517.779247,8438.347739,-444.123565,-77682.083497
27517.781829,0.000000,4589.276840,-76303.111601
27517.784411,9770.718434,4441.235652,-76149.892501
27517.786993,1184.329507,3849.070898,-73851.606007
27517.789575,-148.041188,-592.164754,-74924.139704
27517.792157,2812.782580,-2220.617826,-78601.398095
27517.794739,-2220.617826,4293.194464,-78141.740796
27517.797322,3849.070898,5329.482782,-75230.577904
27517.799904,2960.823768,6069.688724,-76303.111601
27517.802486,3404.947333,4885.359217,-76609.549800
27517.805068,592.164754,740.205942,-75230.577904
27517.807650,-296.082377,4589.276840,-73238.729609
27517.810232,296.082377,-148.041188,-77222.426198
27517.812814,5181.441594,-148.041188,-76609.549800
27517.815396,2664.741391,-10066.800811,-76762.768900
27517.817978,1924.535449,-3997.112087,-74924.139704
27517.820560,10214.842000,-5181.441594,-76609.549800
27517.823142,-2368.659014,7698.141797,-75077.358804
27517.825724,-1628.453072,8290.306550,-76456.330700
27517.828307,-3404.947333,6513.812290,-75537.016103
27517.830889,6069.688724,888.247130,-75690.235202
27517.833471,6661.853478,16876.695478,-74004.825107
27517.836053,-296.082377,23538.548956,-74464.482406
27517.838635,-2220.617826,18801.230927,-75077.358804
27517.841217,2664.741391,13767.830521,-73851.606007
27517.843799,-888.247130,3849.070898,-74004.825107
27517.846381,6809.894666,6661.853478,-75843.454302
27517.848963,4441.235652,7254.018232,-76762.768900
27517.851545,4441.235652,11843.295072,-76303.111601
27517.854090,7402.059420,11251.130318,-75843.454302
27517.856636,-9770.718434,11399.171507,-74158.044206
27517.859181,7698.141797,10955.047942,-75537.016103
27517.861726,-9474.636058,9326.594869,-74004.825107
27517.864271,6809.894666,10362.883188,-74770.920605
27517.866816,296.082377,12583.501014,-75383.797003
27517.869361,2220.617826,13027.624579,-75843.454302
27517.871906,148.041188,14952.160028,-72472.634111
27517.874451,2072.576638,18357.107362,-72779.072310
27517.876997,7550.100608,16432.571912,-75077.358804
27517.879542,2072.576638,15396.283594,-74770.920605
27517.882087,1480.411884,3849.070898,-75537.016103
27517.884632,-9178.553681,3997.112087,-75690.235202
27517.887177,6217.729913,10658.965565,-75230.577904
27517.889722,2220.617826,9474.636058,-76762.768900
27517.892267,2960.823768,888.247130,-75230.577904
27517.894812,2220.617826,-3256.906145,-75077.358804
27517.897358,-5921.647536,-4441.235652,-76303.111601
27517.899903,6809.894666,-592.164754,-76456.330700
27517.902448,1184.329507,3404.947333,-76762.768900
27517.904993,7550.100608,3552.988522,-75996.673402
27517.907538,2812.782580,3256.906145,-73238.729609
27517.910083,-4737.318029,1332.370696,-74464.482406
27517.912628,1628.453072,1776.494261,-76149.892501
27517.915173,-5181.441594,-148.041188,-77682.083497
27517.917719,8586.388927,4293.194464,-76149.892501
27517.920264,3701.029710,4737.318029,-75077.358804
27517.922809,1036.288319,1332.370696,-76456.330700
27517.925354,-592.164754,5773.606348,-74770.920605
27517.927899,-1036.288319,-1332.370696,-76149.892501
27517.930444,2220.617826,3256.906145,-74158.044206
27517.932989,0.000000,-5773.606348,-77375.645298
27517.935535,8438.347739,-5773.606348,-75230.577904
27517.938080,3108.864956,-6365.771101,-75230.577904
27517.940625,4885.359217,-888.247130,-75690.235202
27517.943170,4293.194464,5773.606348,-76762.768900
27517.945715,-7698.141797,8586.388927,-74617.701505
27517.948260,2812.782580,1184.329507,-76609.549800
27517.950805,1480.411884,9030.512492,-73545.167808
27517.953350,6809.894666,17320.819043,-74464.482406
27517.955905,4145.153275,22798.343014,-74924.139704
27517.958460,-8438.347739,17024.736666,-75077.358804
27517.961015,7698.141797,11251.130318,-72319.415011
27517.963570,-5181.441594,5181.441594,-74158.044206
27517.966124,11991.336260,7994.224174,-75996.673402
27517.968679,1924.535449,7994.224174,-76456.330700
27517.971234,3552.988522,9918.759623,-76762.768900
27517.973789,-1776.494261,9030.512492,-75996.673402
27517.976344,-1184.329507,14656.077652,-74004.825107
27517.978898,3404.947333,7402.059420,-74924.139704
27517.981453,-1036.288319,12287.418637,-72166.195912
27517.984008,4737.318029,10955.047942,-73698.386908
27517.986563,3552.988522,11695.253884,-76762.768900
27517.989118,-1776.494261,11399.171507,-75383.797003
27517.991672,3701.029710,16284.530724,-72625.853210
27517.994227,2960.823768,14656.077652,-74617.701505
27517.996782,8438.347739,17468.860231,-74311.263306
27517.999337,1332.370696,8882.471304,-75383.797003
27518.001892,-4441.235652,6661.853478,-75383.797003
27518.004446,-3256.906145,5773.606348,-75077.358804
27518.007001,4737.318029,12583.501014,-75077.358804
27518.009556,5181.441594,1332.370696,-77835.302597
27518.012111,3108.864956,-1332.370696,-74617.701505
27518.014665,-2220.617826,-4441.235652,-75230.577904
27518.017220,2516.700203,-1776.494261,-75230.577904
27518.019775,-888.247130,2220.617826,-77222.426198
27518.022330,12139.377449,3997.112087,-75996.673402
27518.024885,-444.123565,5329.482782,-74464.482406
27518.027439,10066.800811,296.082377,-74311.263306
27518.029994,-9474.636058,2812.782580,-77069.207099
27518.032549,4145.153275,888.247130,-78907.836294
27518.035104,-740.205942,1036.288319,-78294.959896
27518.037659,6957.935855,8290.306550,-75996.673402
27518.040213,3256.906145,3404.947333,-77222.426198
27518.042768,2812.782580,2516.700203,-75690.235202
27518.045323,296.082377,2960.823768,-74004.825107
27518.047878,-1332.370696,-1332.370696,-75996.673402
27518.050433,3849.070898,740.205942,-76915.987999
27518.052987,4885.359217,-8290.306550,-77835.302597
27518.055542,2664.741391,-3997.112087,-74311.263306
27518.058105,10066.800811,-6513.812290,-75996.673402
27518.060668,-5329.482782,6069.688724,-75230.577904
27518.063230,2368.659014,6809.894666,-76762.768900
27518.065793,-5033.400406,7402.059420,-75230.577904
27518.068356,7105.977043,7846.182985,-74311.263306
27518.070919,5033.400406,19837.519246,-74158.044206
27518.073481,3849.070898,22650.301825,-74004.825107
27518.076044,-7698.141797,19393.395680,-73851.606007
27518.078607,7105.977043,10362.883188,-74158.044206
27518.081170,-8142.265362,3997.112087,-74464.482406
27518.083732,15100.201217,5181.441594,-75537.016103
27518.086295,888.247130,5477.523971,-77682.083497
27518.088858,10510.924376,10214.842000,-74004.825107
27518.091420,3849.070898,14063.912898,-74464.482406
27518.093983,-8290.306550,8734.430116,-75537.016103
27518.096546,1036.288319,13619.789333,-74924.139704
27518.099109,8438.347739,7402.059420,-74464.482406
27518.101671,-1184.329507,11547.212695,-74924.139704
27518.104234,7254.018232,15544.324782,-74311.263306
27518.106797,-7550.100608,8734.430116,-76456.330700
27518.109360,9770.718434,17616.901420,-72779.072310
27518.111922,1480.411884,14211.954086,-73545.167808
27518.114485,5181.441594,17320.819043,-74464.482406
27518.117048,740.205942,6661.853478,-76149.892501
27518.119611,-5921.647536,8586.388927,-74464.482406
27518.122173,-3108.864956,7550.100608,-75996.673402
27518.124736,4145.153275,15248.242405,-74311.263306
27518.127299,7254.018232,592.164754,-77375.645298
27518.129862,1628.453072,-3997.112087,-74770.920605
27518.132424,-1628.453072,-5033.400406,-74924.139704
27518.134987,1480.411884,-1776.494261,-77528.864398
27518.137550,1628.453072,3108.864956,-77375.645298
27518.140112,7254.018232,3256.906145,-76609.549800
27518.142675,3997.112087,6809.894666,-73698.386908
27518.145238,5625.565159,0.000000,-74617.701505
27518.147801,-7550.100608,3404.947333,-73085.510509
27518.150363,2960.823768,1036.288319,-75077.358804
27518.152926,3997.112087,6957.935855,-74770.920605
27518.155489,-2072.576638,7254.018232,-74770.920605
27518.158052,11695.253884,1924.535449,-77682.083497
27518.160626,-5773.606348,2072.576638,-76609.549800
27518.163195,5033.400406,-592.164754,-73545.167808
27518.165763,-7994.224174,2664.741391,-75383.797003
27518.168331,9030.512492,-4737.318029,-78294.959896
27518.170899,-3256.906145,-4589.276840,-75077.358804
27518.173467,11547.212695,-7994.224174,-75537.016103
27518.176035,-8290.306550,-2664.741391,-75383.797003
27518.178604,8438.347739,5477.523971,-75230.577904
27518.181172,-6661.853478,5625.565159,-75537.016103
27518.183740,296.082377,1332.370696,-76149.892501
27518.186308,296.082377,13915.871710,-73391.948708
27518.188876,7698.141797,18949.272115,-74770.920605
27518.191444,2220.617826,25463.084405,-74464.482406
27518.194012,-3552.988522,14359.995275,-73545.167808
27518.196581,2220.617826,8586.388927,-72779.072310
27518.199149,2960.823768,2960.823768,-74770.920605
27518.201717,5477.523971,6809.894666,-75383.797003
27518.204285,5329.482782,6957.935855,-76456.330700
27518.206853,1776.494261,12879.583391,-73391.948708
27518.209421,740.205942,10658.965565,-74617.701505
27518.211990,-3108.864956,12287.418637,-74464.482406
27518.214558,-444.123565,11991.336260,-73238.729609
27518.217126,11547.212695,10807.006753,-73238.729609
27518.219694,1332.370696,13323.706956,-74311.263306
27518.222262,6365.771101,11843.295072,-75690.235202
27518.224830,-6809.894666,14211.954086,-74004.825107
27518.227399,8882.471304,14063.912898,-73391.948708
27518.229967,-3108.864956,16284.530724,-73238.729609
27518.232535,9178.553681,13175.665768,-74311.263306
27518.235103,-7550.100608,7994.224174,-75996.673402
27518.237671,296.082377,9326.594869,-74924.139704
27518.240239,-1184.329507,14063.912898,-74464.482406
27518.242808,9770.718434,3552.988522,-76303.111601
27518.245376,-2516.700203,-4737.318029,-75383.797003
27518.247944,3108.864956,-6809.894666,-75537.016103
27518.250512,-3256.906145,-2960.823768,-76609.549800
27518.253080,4145.153275,444.123565,-77835.302597
27518.255648,9326.594869,3849.070898,-76762.768900
27518.258217,1776.494261,5921.647536,-74464.482406
27518.260785,6217.729913,3849.070898,-74004.825107
27518.263358,-2516.700203,888.247130,-76915.987999
27518.265931,3701.029710,2664.741391,-75230.577904
27518.268504,-1776.494261,-740.205942,-77069.207099
27518.271077,10807.006753,4293.194464,-75843.454302
27518.273650,-2664.741391,4293.194464,-75537.016103
27518.276223,5329.482782,3256.906145,-74311.263306
27518.278796,-3997.112087,2220.617826,-74311.263306
27518.281369,2516.700203,-148.041188,-75996.673402
27518.283942,-148.041188,-3997.112087,-77835.302597
27518.286515,5921.647536,-3997.112087,-76456.330700
27518.289088,8882.471304,-5921.647536,-76303.111601
27518.291661,-5181.441594,-1332.370696,-76303.111601
27518.294234,4441.235652,5625.565159,-76456.330700
27518.296807,-4145.153275,6217.729913,-75996.673402
27518.299380,3701.029710,296.082377,-76915.987999
27518.301953,444.123565,15840.407159,-74004.825107
27518.304526,6661.853478,21465.972318,-75690.235202
27518.307099,-148.041188,21465.972318,-74770.920605
27518.309672,1332.370696,13027.624579,-73851.606007
27518.312245,-2664.741391,7105.977043,-72932.291410
27518.314818,3256.906145,1924.535449,-75230.577904
27518.317391,5329.482782,6513.812290,-76149.892501
27518.319964,3404.947333,7254.018232,-75690.235202
27518.322537,-2072.576638,10066.800811,-74004.825107
27518.325110,7105.977043,13767.830521,-74770.920605
27518.327683,-9770.718434,13027.624579,-73698.386908
27518.330256,4145.153275,8290.306550,-73698.386908
27518.332829,-148.041188,14804.118840,-73085.510509
27518.335402,9918.759623,12287.418637,-75537.016103
27518.337975,444.123565,16136.489536,-74311.263306
27518.340548,4145.153275,14656.077652,-73851.606007
27518.343121,1776.494261,14359.995275,-71859.757712
27518.345694,1184.329507,14804.118840,-74158.044206
27518.348267,5773.606348,8882.471304,-75230.577904
27518.350840,-8142.265362,9622.677246,-76149.892501
27518.353413,7994.224174,11103.089130,-75843.454302
27518.355986,-2664.741391,12287.418637,-75537.016103
27518.358559,6513.812290,-3849.070898,-76609.549800
27518.361132,-2368.659014,-4885.359217,-74004.825107
27518.363705,1332.370696,-6513.812290,-74770.920605
27518.366244,1480.411884,-1480.411884,-77528.864398
27518.368782,1332.370696,2220.617826,-77528.864398
27518.371321,6513.812290,4145.153275,-75077.358804
27518.373860,1184.329507,6069.688724,-73698.386908
27518.376399,4293.194464,1628.453072,-73698.386908
27518.378938,-4589.276840,3552.988522,-74770.920605
27518.381477,2220.617826,-4293.194464,-77375.645298
27518.384016,296.082377,4293.194464,-74617.701505
27518.386555,3997.112087,6513.812290,-75230.577904
27518.389094,1036.288319,2960.823768,-75690.235202
27518.391633,-1480.411884,1184.329507,-75383.797003
27518.394172,1036.288319,740.205942,-75537.016103
27518.396711,-444.123565,-2368.659014,-77835.302597
27518.399250,3552.988522,-5773.606348,-77069.207099
27518.401789,6513.812290,-4737.318029,-76456.330700
27518.404328,3701.029710,-6217.729913,-75843.454302
27518.406867,2664.741391,2960.823768,-75383.797003
27518.409406,-6661.853478,5329.482782,-74311.263306
27518.411945,-888.247130,2368.659014,-75843.454302
27518.414483,2072.576638,11251.130318,-74004.825107
27518.417022,5625.565159,19393.395680,-75537.016103
27518.419561,1480.411884,26795.455100,-74770.920605
27518.422100,-3997.112087,19097.313304,-74004.825107
27518.424639,5773.606348,11991.336260,-73238.729609
27518.427178,-2220.617826,2516.700203,-75077.358804
27518.429717,8290.306550,4737.318029,-74770.920605
27518.432256,5921.647536,4293.194464,-77988.521696
27518.434795,5033.400406,12583.501014,-73698.386908
27518.437334,-2960.823768,10066.800811,-73545.167808
27518.439873,-444.123565,15396.283594,-73391.948708
27518.442412,-2812.782580,8438.347739,-75383.797003
27518.444951,13619.789333,8142.265362,-72779.072310
27518.447490,-740.205942,15396.283594,-72319.415011
27518.450029,6513.812290,14359.995275,-76303.111601
27518.452568,-5625.565159,15396.283594,-74311.263306
27518.455107,9622.677246,14211.954086,-73238.729609
27518.457645,-2072.576638,13915.871710,-74770.920605
27518.460184,7994.224174,9622.677246,-74924.139704
27518.462723,-9770.718434,8438.347739,-75230.577904
27518.465262,2960.823768,13323.706956,-75230.577904
27518.467812,148.041188,14063.912898,-75690.235202
27518.470361,5625.565159,-888.247130,-76609.549800
27518.472910,1924.535449,-6809.894666,-75537.016103
27518.475459,-3108.864956,-6217.729913,-75843.454302
27518.478008,7402.059420,-2664.741391,-78141.740796
27518.480558,-1776.494261,4885.359217,-77528.864398
27518.483107,10807.006753,3256.906145,-75537.016103
27518.485656,0.000000,6957.935855,-74004.825107
27518.488205,6957.935855,2220.617826,-75537.016103
27518.490755,-2368.659014,3849.070898,-74004.825107
27518.493304,-444.123565,4145.153275,-76762.768900
27518.495853,-7105.977043,1480.411884,-76303.111601
27518.498402,4737.318029,7698.141797,-74924.139704
27518.500951,5033.400406,-148.041188,-77835.302597
27518.503501,1480.411884,2516.700203,-74311.263306
27518.506050,-296.082377,-1628.453072,-74158.044206
27518.508599,1332.370696,-2516.700203,-75843.454302
27518.511148,3256.906145,-7254.018232,-77988.521696
27518.513698,6661.853478,-2516.700203,-75537.016103
27518.516247,444.123565,-3404.947333,-76762.768900
27518.518796,740.205942,2220.617826,-75996.673402
27518.521345,-592.164754,4737.318029,-75383.797003
27518.523894,-3404.947333,740.205942,-75230.577904
27518.526444,2812.782580,14359.995275,-72779.072310
27518.528993,4589.276840,20725.766376,-74924.139704
27518.531542,1776.494261,25759.166782,-74770.920605
27518.534091,-5773.606348,18653.189738,-73698.386908
27518.536641,-1332.370696,10807.006753,-72779.072310
27518.539190,7994.224174,740.205942,-75996.673402
27518.541739,4885.359217,6513.812290,-75077.358804
27518.544288,3108.864956,4441.235652,-76303.111601
27518.546837,-2072.576638,10066.800811,-75537.016103
27518.549387,11103.089130,11695.253884,-74770.920605
27518.551936,-14359.995275,18801.230927,-71246.881314
27518.554485,12287.418637,5625.565159,-77528.864398
27518.557034,-2368.659014,14508.036463,-72625.853210
27518.559584,8290.306550,11991.336260,-77682.083497
27518.562133,6513.812290,19245.354492,-76149.892501
27518.564682,0.000000,12435.459826,-75843.454302
27518.567231,6809.894666,15396.283594,-72625.853210
27518.569789,-5329.482782,11843.295072,-74311.263306
27518.572347,6365.771101,9030.512492,-75077.358804
27518.574905,-8586.388927,10658.965565,-74770.920605
27518.577463,7698.141797,14952.160028,-75077.358804
27518.580021,3256.906145,7105.977043,-76149.892501
27518.582579,1628.453072,-7550.100608,-75843.454302
27518.585136,1776.494261,-6513.812290,-74924.139704
27518.587694,-4737.318029,-5773.606348,-75996.673402
27518.590252,9622.677246,1036.288319,-77069.207099
27518.592810,-592.164754,3404.947333,-76915.987999
27518.595368,9178.553681,6069.688724,-75077.358804
27518.597926,592.164754,4145.153275,-73698.386908
27518.600484,1036.288319,2368.659014,-75690.235202
27518.603042,-1924.535449,2812.782580,-75383.797003
27518.605599,1036.288319,592.164754,-75843.454302
27518.608157,-740.205942,5181.441594,-75690.235202
27518.610715,7105.977043,5625.565159,-75383.797003
27518.613273,-888.247130,-740.205942,-76456.330700
27518.615831,1924.535449,1332.370696,-75690.235202
27518.618389,-2516.700203,-2960.823768,-75996.673402
27518.620947,4589.276840,-5181.441594,-77222.426198
27518.623505,3997.112087,-5773.606348,-77375.645298
27518.626062,6365.771101,-5625.565159,-75383.797003
27518.628620,2368.659014,592.164754,-75383.797003
27518.631178,-5329.482782,4885.359217,-76303.111601
27518.633736,1332.370696,2812.782580,-75690.235202
27518.636294,-2368.659014,8586.388927,-73391.948708
27518.638852,1924.535449,20725.766376,-74464.482406
27518.641410,6365.771101,26499.372724,-74617.701505
27518.643968,-9622.677246,19689.478057,-73238.729609
27518.646525,9326.594869,11399.171507,-72932.291410
27518.649083,-8142.265362,3256.906145,-74770.920605
27518.651641,14952.160028,3256.906145,-75690.235202
27518.654199,-1924.535449,3997.112087,-77375.645298
27518.656757,8586.388927,11399.171507,-73391.948708
27518.659315,-5181.441594,11547.212695,-74770.920605
27518.661873,3256.906145,14656.077652,-74770.920605
27518.664431,-4589.276840,7105.977043,-75537.016103
27518.666988,5477.523971,10066.800811,-73391.948708
27518.669546,2812.782580,14508.036463,-74770.920605
27518.672075,4293.194464,15396.283594,-77528.864398
27518.674603,1036.288319,14508.036463,-75690.235202
27518.677131,3108.864956,14952.160028,-72932.291410
27518.679660,1924.535449,11695.253884,-72779.072310
27518.682188,1480.411884,9770.718434,-74158.044206
27518.684716,-8290.306550,10955.047942,-74158.044206
27518.687245,4145.153275,19097.313304,-74004.825107
27518.689773,4145.153275,6809.894666,-76149.892501
27518.692301,0.000000,-7698.141797,-74617.701505
27518.694830,-740.205942,-9326.594869,-74311.263306
27518.697358,-1776.494261,-6513.812290,-76915.987999
27518.699887,5625.565159,0.000000,-77835.302597
27518.702415,4145.153275,5773.606348,-75230.577904
27518.704943,6661.853478,5181.441594,-74617.701505
27518.707472,-3256.906145,5033.400406,-74158.044206
27518.710000,4737.318029,4885.359217,-74464.482406
27518.712528,1628.453072,5625.565159,-73851.606007
27518.715057,-2220.617826,-1184.329507,-76762.768900
27518.717585,8734.430116,3108.864956,-74464.482406
27518.720113,1036.288319,1184.329507,-76149.892501
27518.722642,1776.494261,1480.411884,-75843.454302
27518.725170,-4293.194464,-2072.576638,-75537.016103
27518.727698,4145.153275,-1036.288319,-75843.454302
27518.730227,592.164754,-4145.153275,-77222.426198
27518.732755,7402.059420,-5033.400406,-75843.454302
27518.735283,0.000000,-2812.782580,-75537.016103
27518.737812,-592.164754,1480.411884,-75537.016103
27518.740340,740.205942,4293.194464,-76303.111601
27518.742869,-3997.112087,-740.205942,-75843.454302
27518.745397,5921.647536,17024.736666,-72625.853210
27518.747925,4293.194464,21465.972318,-75230.577904
27518.750454,3701.029710,27091.537477,-76456.330700
27518.752982,-5625.565159,15692.365970,-73238.729609
27518.755510,3701.029710,9918.759623,-72319.415011
27518.758039,2072.576638,592.164754,-75230.577904
27518.760567,3849.070898,4737.318029,-76609.549800
27518.763095,6957.935855,5329.482782,-77375.645298
27518.765624,0.000000,11547.212695,-75996.673402
27518.768152,4885.359217,10955.047942,-74924.139704
27518.770680,-7105.977043,18505.148550,-72932.291410
27518.773221,-9918.759623,9178.553681,-74617.701505
27518.775762,17764.942608,12583.501014,-72779.072310
27518.778303,-4145.153275,17468.860231,-74617.701505
27518.780844,13027.624579,15100.201217,-76303.111601
27518.783385,-7402.059420,15248.242405,-73545.167808
27518.785926,8882.471304,11843.295072,-72472.634111
27518.788467,-4441.235652,10066.800811,-74617.701505
27518.791008,148.041188,8882.471304,-75843.454302
27518.793549,5477.523971,15396.283594,-74770.920605
27518.796090,592.164754,14359.995275,-76303.111601
27518.798631,3552.988522,-1924.535449,-76609.549800
27518.801172,296.082377,-8882.471304,-74158.044206
27518.803713,-444.123565,-8438.347739,-74924.139704
27518.806254,2072.576638,-3997.112087,-77835.302597
27518.808795,5477.523971,2812.782580,-77222.426198
27518.811336,4293.194464,4145.153275,-75383.797003
27518.813877,1036.288319,6069.688724,-74004.825107
27518.816418,1480.411884,5773.606348,-74004.825107
27518.818959,1628.453072,4885.359217,-75996.673402
27518.821499,-1036.288319,444.123565,-75690.235202
27518.824040,4145.153275,2220.617826,-76303.111601
27518.826581,740.205942,5477.523971,-75383.797003
27518.829122,1480.411884,-888.247130,-77375.645298
27518.831663,296.082377,1036.288319,-74311.263306
27518.834204,444.123565,-3404.947333,-76456.330700
27518.836745,2516.700203,-3701.029710,-77375.645298
27518.839286,6365.771101,-3997.112087,-78141.740796
27518.841827,3552.988522,-5033.400406,-76456.330700
27518.844368,4589.276840,-444.123565,-75843.454302
27518.846909,-7254.018232,1332.370696,-75537.016103
27518.849450,2664.741391,444.123565,-76609.549800
27518.851991,-888.247130,10807.006753,-73238.729609
27518.854532,7254.018232,22502.260637,-74464.482406
27518.857073,444.123565,27831.743419,-74770.920605
27518.859614,-2664.741391,19097.313304,-73851.606007
27518.862155,3256.906145,12731.542202,-71859.757712
27518.864696,-1184.329507,1776.494261,-75383.797003
27518.867237,6957.935855,4441.235652,-75996.673402
27518.869778,-148.041188,6365.771101,-76609.549800
27518.872318,3849.070898,9622.677246,-75383.797003
27518.874870,4589.276840,15840.407159,-72932.291410
27518.877421,-2960.823768,15100.201217,-72779.072310
27518.879973,1036.288319,6365.771101,-76609.549800
27518.882524,-1184.329507,10362.883188,-73698.386908
27518.885076,8290.306550,16284.530724,-74158.044206
27518.887627,3404.947333,17320.819043,-75690.235202
27518.890179,2516.700203,15544.324782,-73238.729609
27518.892730,2072.576638,13767.830521,-71859.757712
27518.895282,5921.647536,10362.883188,-74004.825107
27518.897833,-5477.523971,8142.265362,-75690.235202
27518.900384,5033.400406,17616.901420,-74311.263306
27518.902936,296.082377,15396.283594,-75843.454302
27518.905487,3997.112087,-1036.288319,-76149.892501
27518.908039,-740.205942,-10658.965565,-74924.139704
27518.910590,-2072.576638,-9622.677246,-74158.044206
27518.913142,4737.318029,-4145.153275,-76915.987999
27518.915693,-2812.782580,3997.112087,-76915.987999
27518.918245,11251.130318,4885.359217,-75230.577904
27518.920796,-5477.523971,7254.018232,-72472.634111
27518.923348,9770.718434,2812.782580,-76609.549800
27518.925899,-5329.482782,3256.906145,-77222.426198
27518.928450,5033.400406,592.164754,-78141.740796
27518.931002,4737.318029,-2368.659014,-77222.426198
27518.933553,296.082377,5625.565159,-74617.701505
27518.936105,7402.059420,0.000000,-76915.987999
27518.938656,-6217.729913,444.123565,-75537.016103
27518.941208,6365.771101,0.000000,-74617.701505
27518.943759,-2516.700203,-4145.153275,-76456.330700
27518.946311,10658.965565,-2960.823768,-77375.645298
27518.948862,-1332.370696,-6069.688724,-76609.549800
27518.951414,2664.741391,1332.370696,-75230.577904
27518.953965,-3997.112087,-888.247130,-76303.111601
27518.956516,-1480.411884,-444.123565,-75843.454302
27518.959068,4737.318029,15692.365970,-72932.291410
27518.961619,3701.029710,25907.207970,-74004.825107
27518.964171,1924.535449,27979.784608,-75230.577904
27518.966722,-5033.400406,18209.066173,-74004.825107
27518.969274,5477.523971,11103.089130,-72166.195912
27518.971825,-1628.453072,740.205942,-74770.920605
27518.974377,6809.894666,5181.441594,-76609.549800
27518.976936,1480.411884,5625.565159,-76149.892501
27518.979496,8142.265362,10955.047942,-73545.167808
27518.982055,-12287.418637,12583.501014,-73085.510509
27518.984615,16580.613101,14508.036463,-74158.044206
27518.987174,-17172.777854,9918.759623,-75383.797003
27518.989734,17764.942608,13175.665768,-73391.948708
27518.992293,-2960.823768,19837.519246,-75383.797003
27518.994853,13915.871710,13915.871710,-77528.864398
27518.997412,-6069.688724,16284.530724,-73238.729609
27518.999971,-2664.741391,10807.006753,-72012.976812
27519.002531,2368.659014,8734.430116,-74770.920605
27519.005090,-6957.935855,12879.583391,-74311.263306
27519.007650,7994.224174,21762.054695,-74617.701505
27519.010209,2368.659014,9474.636058,-76456.330700
27519.012769,1184.329507,-5921.647536,-76149.892501
27519.015328,-444.123565,-12583.501014,-74924.139704
27519.017888,-3849.070898,-7846.182985,-75690.235202
27519.020447,7698.141797,592.164754,-77835.302597
27519.023007,444.123565,6513.812290,-77069.207099
27519.025566,10658.965565,5921.647536,-75383.797003
27519.028126,-2516.700203,4441.235652,-72779.072310
27519.030685,4441.235652,5033.400406,-73545.167808
27519.033245,-4885.359217,-888.247130,-76149.892501
27519.035804,4885.359217,4441.235652,-75230.577904
27519.038364,2664.741391,444.123565,-76303.111601
27519.040923,5477.523971,1924.535449,-76762.768900
27519.043483,148.041188,-2072.576638,-74617.701505
27519.046042,1036.288319,0.000000,-73238.729609
27519.048602,888.247130,-3849.070898,-76149.892501
27519.051161,3849.070898,-1184.329507,-76762.768900
27519.053721,5033.400406,-5033.400406,-77988.521696
27519.056280,2664.741391,0.000000,-75383.797003
27519.058840,-5033.400406,-1628.453072,-76303.111601
27519.061399,740.205942,-1924.535449,-75690.235202
27519.063959,2516.700203,10807.006753,-73851.606007
27519.066518,4441.235652,24870.919651,-73085.510509
27519.069078,4441.235652,30644.525999,-74770.920605
27519.071637,-8734.430116,21021.848753,-73391.948708
27519.074197,9178.553681,12139.377449,-72779.072310
27519.076756,-6661.853478,2960.823768,-73698.386908
27519.079287,13767.830521,3701.029710,-75690.235202
27519.081819,296.082377,6069.688724,-78601.398095
27519.084350,5921.647536,3997.112087,-77835.302597
27519.086881,-1628.453072,14359.995275,-73851.606007
27519.089412,5033.400406,12879.583391,-75230.577904
27519.091943,-2664.741391,9030.512492,-77835.302597
27519.094474,-1036.288319,14211.954086,-73698.386908
27519.097005,13175.665768,17616.901420,-74004.825107
27519.099537,-3701.029710,17320.819043,-75230.577904
27519.102068,10807.006753,12731.542202,-73545.167808
27519.104599,-10362.883188,12139.377449,-70787.224015
27519.107130,6661.853478,8142.265362,-73698.386908
27519.109661,-8142.265362,11695.253884,-74617.701505
27519.112192,6365.771101,22650.301825,-74770.920605
27519.114724,4885.359217,7550.100608,-76762.768900
27519.117255,148.041188,-6069.688724,-75690.235202
27519.119786,1332.370696,-12731.542202,-75077.358804
27519.122317,-2516.700203,-8142.265362,-75690.235202
27519.124848,7254.018232,-3404.947333,-78448.178995
27519.127379,1776.494261,5181.441594,-77222.426198
27519.129911,6365.771101,4737.318029,-75230.577904
27519.132442,-3552.988522,7846.182985,-73085.510509
27519.134973,-444.123565,3404.947333,-75077.358804
27519.137504,2368.659014,1924.535449,-76303.111601
27519.140035,-2516.700203,2960.823768,-75077.358804
27519.142566,592.164754,888.247130,-74464.482406
27519.145098,7698.141797,444.123565,-77988.521696
27519.147629,-3997.112087,-1184.329507,-77222.426198
27519.150160,6069.688724,-3404.947333,-75383.797003
27519.152691,-740.205942,-2368.659014,-74617.701505
27519.155222,10955.047942,-4885.359217,-79673.931792
27519.157753,-2368.659014,-3404.947333,-76915.987999
27519.160298,4885.359217,-1184.329507,-76762.768900
27519.162841,-6069.688724,444.123565,-74924.139704
27519.165384,2220.617826,-5477.523971,-76303.111601
27519.167927,-296.082377,12879.583391,-72319.415011
27519.170470,6217.729913,23982.672521,-73698.386908
27519.173014,1628.453072,31236.690752,-74311.263306
27519.175557,-5181.441594,18653.189738,-73698.386908
27519.178100,7698.141797,9474.636058,-72012.976812
27519.180643,-3997.112087,-1332.370696,-74617.701505
27519.183186,9326.594869,6957.935855,-75230.577904
27519.185729,2664.741391,3849.070898,-79980.369991
27519.188272,3404.947333,7846.182985,-76609.549800
27519.190815,3997.112087,13471.748144,-72625.853210
27519.193358,-3849.070898,11103.089130,-75996.673402
27519.195901,3552.988522,15100.201217,-74770.920605
27519.198444,4737.318029,15692.365970,-71706.538613
27519.200987,3552.988522,21021.848753,-74770.920605
27519.203530,7846.182985,14211.954086,-76762.768900
27519.206073,-3849.070898,14359.995275,-72472.634111
27519.208616,2812.782580,9326.594869,-71553.319513
27519.211159,-4885.359217,10362.883188,-73238.729609
27519.213702,1776.494261,14211.954086,-75537.016103
27519.216245,1184.329507,18949.272115,-75690.235202
27519.218788,5773.606348,2960.823768,-76456.330700
27519.221331,-1332.370696,-10362.883188,-75230.577904
27519.223874,296.082377,-12879.583391,-75843.454302
27519.226417,1924.535449,-6809.894666,-76456.330700
27519.228960,3552.988522,1184.329507,-77069.207099
27519.231503,7994.224174,5033.400406,-75996.673402
27519.234046,4589.276840,5773.606348,-73698.386908
27519.236589,8290.306550,4441.235652,-74464.482406
27519.239132,-13323.706956,1480.411884,-77222.426198
27519.241675,18949.272115,3552.988522,-76762.768900
27519.244218,-16580.613101,4441.235652,-75690.235202
27519.246761,24426.796086,444.123565,-75077.358804
27519.249304,-9622.677246,592.164754,-77222.426198
27519.251847,10510.924376,-4885.359217,-75383.797003
27519.254390,-10510.924376,-1184.329507,-73545.167808
27519.256933,7105.977043,-3108.864956,-76762.768900
27519.259476,3997.112087,-3849.070898,-77528.864398
27519.262029,6217.729913,-1036.288319,-76456.330700
27519.264582,-6809.894666,-3108.864956,-76915.987999
27519.267135,1924.535449,-2960.823768,-76303.111601
27519.269689,-2516.700203,2220.617826,-74770.920605
27519.272242,4293.194464,21021.848753,-73851.606007
27519.274795,5921.647536,32421.020260,-74004.825107
27519.277348,-6809.894666,26647.413912,-73698.386908
27519.279901,6069.688724,12879.583391,-73851.606007
27519.282454,-4589.276840,592.164754,-74464.482406
27519.285007,8882.471304,5181.441594,-73545.167808
27519.287560,2960.823768,8734.430116,-79520.712692
27519.290113,4589.276840,5625.565159,-79827.150892
27519.292666,-2368.659014,9622.677246,-73698.386908
27519.295219,3849.070898,11399.171507,-72779.072310
27519.297772,-4145.153275,7846.182985,-76149.892501
27519.300325,3552.988522,18505.148550,-72472.634111
27519.302878,4589.276840,20429.683999,-74770.920605
27519.305432,4145.153275,18209.066173,-76915.987999
27519.307985,444.123565,12435.459826,-74617.701505
27519.310538,-592.164754,11399.171507,-72472.634111
27519.313091,-1036.288319,8882.471304,-73238.729609
27519.315644,-2516.700203,14656.077652,-74770.920605
27519.318197,8438.347739,20725.766376,-75690.235202
27519.320750,3701.029710,3701.029710,-75843.454302
27519.323303,148.041188,-9326.594869,-75383.797003
27519.325856,-1036.288319,-13175.665768,-75690.235202
27519.328409,-1184.329507,-7846.182985,-76303.111601
27519.330962,5477.523971,1480.411884,-77222.426198
27519.333515,3256.906145,5921.647536,-76609.549800
27519.336068,5033.400406,6513.812290,-74924.139704
27519.338622,444.123565,6365.771101,-71553.319513
27519.341175,2664.741391,6957.935855,-73545.167808
27519.343728,-1776.494261,2072.576638,-75537.016103
27519.346281,5033.400406,296.082377,-76149.892501
27519.348834,-592.164754,4885.359217,-74004.825107
27519.351387,4589.276840,-2220.617826,-77069.207099
27519.353940,148.041188,-1184.329507,-74158.044206
27519.356493,1628.453072,-4737.318029,-73391.948708
27519.359046,1776.494261,-296.082377,-73851.606007
27519.361599,3108.864956,-3849.070898,-77528.864398
27519.364161,6809.894666,0.000000,-76456.330700
27519.366722,-10214.842000,-3256.906145,-77528.864398
27519.369284,6957.935855,-4737.318029,-76609.549800
27519.371845,-5477.523971,1184.329507,-74924.139704
27519.374407,10955.047942,20577.725188,-72932.291410
27519.376968,-2072.576638,32124.937883,-73698.386908
27519.379530,1776.494261,27387.619854,-74924.139704
27519.382091,-592.164754,14211.954086,-72932.291410
27519.384652,5773.606348,444.123565,-74311.263306
27519.387214,5181.441594,5329.482782,-73391.948708
27519.389775,4293.194464,7846.182985,-78601.398095
27519.392337,4145.153275,5033.400406,-78601.398095
27519.394898,-2220.617826,9474.636058,-71859.757712
27519.397460,-2368.659014,14063.912898,-71553.319513
27519.400021,7698.141797,9474.636058,-75843.454302
27519.402583,1480.411884,16580.613101,-74158.044206
27519.405144,7402.059420,21317.931130,-74464.482406
27519.407706,3108.864956,16876.695478,-77375.645298
27519.410267,2812.782580,11695.253884,-75383.797003
27519.412829,-296.082377,7254.018232,-72932.291410
27519.415390,-4145.153275,9770.718434,-72472.634111
27519.417952,-296.082377,15248.242405,-75230.577904
27519.420513,7105.977043,22798.343014,-74464.482406
27519.423075,2960.823768,1628.453072,-76762.768900
27519.425636,2368.659014,-10807.006753,-76456.330700
27519.428198,-6069.688724,-14508.036463,-76762.768900
27519.430759,8586.388927,-5477.523971,-77222.426198
27519.433321,-2072.576638,1332.370696,-77222.426198
27519.435882,10066.800811,6217.729913,-75996.673402
27519.438444,-444.123565,6957.935855,-74158.044206
27519.441005,3404.947333,7550.100608,-72779.072310
27519.443566,-1628.453072,10362.883188,-73238.729609
27519.446128,-5773.606348,1184.329507,-77069.207099
27519.448689,5921.647536,5477.523971,-74464.482406
27519.451251,-2812.782580,-592.164754,-76149.892501
27519.453812,7846.182985,740.205942,-77528.864398
27519.456374,-2072.576638,-7105.977043,-77222.426198
27519.458935,3849.070898,-148.041188,-72779.072310
27519.461497,5329.482782,-5181.441594,-76456.330700
27519.464058,592.164754,-2220.617826,-77222.426198
27519.466627,2368.659014,-888.247130,-78141.740796
27519.469195,-4293.194464,-3108.864956,-76915.987999
27519.471763,1776.494261,-6217.729913,-77069.207099
27519.474332,-740.205942,9770.718434,-73238.729609
27519.476900,5625.565159,25018.960840,-74924.139704
27519.479468,1628.453072,32124.937883,-74004.825107
27519.482037,-5921.647536,24278.754898,-73698.386908
27519.484605,6513.812290,7698.141797,-72166.195912
27519.487173,-3701.029710,-1776.494261,-75077.358804
27519.489741,10066.800811,9770.718434,-74158.044206
27519.492310,-2368.659014,7254.018232,-78141.740796
27519.494878,12435.459826,6513.812290,-76149.892501
27519.497446,-11103.089130,10362.883188,-71706.538613
27519.500015,8882.471304,10658.965565,-73085.510509
27519.502583,-10955.047942,11547.212695,-76609.549800
27519.505151,-888.247130,21465.972318,-71093.662214
27519.507720,13471.748144,23538.548956,-74158.044206
27519.510288,-4885.359217,15988.448347,-76149.892501
27519.512856,4441.235652,10066.800811,-74158.044206
27519.515425,-12583.501014,9326.594869,-72166.195912
27519.517993,4885.359217,14804.118840,-74004.825107
27519.520561,1184.329507,24426.796086,-75077.358804
27519.523130,12583.501014,7254.018232,-77528.864398
27519.525698,-3256.906145,-5921.647536,-75996.673402
27519.528266,592.164754,-16876.695478,-76915.987999
27519.530834,-4885.359217,-8290.306550,-76456.330700
27519.533403,11399.171507,-3849.070898,-78754.617194
27519.535971,1184.329507,11399.171507,-76149.892501
27519.538539,4293.194464,5477.523971,-74924.139704
27519.541108,1036.288319,4145.153275,-73851.606007
27519.543676,-1480.411884,-444.123565,-75996.673402
27519.546244,0.000000,5033.400406,-75077.358804
27519.548813,-148.041188,3997.112087,-77375.645298
27519.551381,3997.112087,5033.400406,-75383.797003
27519.553949,3552.988522,-2960.823768,-77528.864398
27519.556518,1480.411884,-4737.318029,-76303.111601
27519.559086,3849.070898,-4589.276840,-74924.139704
27519.561654,4737.318029,-2664.741391,-75996.673402
27519.564223,3404.947333,-2220.617826,-77988.521696
27519.566791,3849.070898,-2220.617826,-77069.207099
27519.569364,-6809.894666,-5181.441594,-77528.864398
27519.571937,2664.741391,-7846.182985,-77222.426198
27519.574510,-740.205942,6957.935855,-73085.510509
27519.577083,5625.565159,23686.590144,-73545.167808
27519.579656,4885.359217,32124.937883,-75383.797003
27519.582229,-8438.347739,23538.548956,-73238.729609
27519.584802,8142.265362,8734.430116,-72625.853210
27519.587375,-5477.523971,-2368.659014,-73391.948708
27519.589948,13323.706956,8882.471304,-75843.454302
27519.592521,-296.082377,10362.883188,-79980.369991
27519.595094,4885.359217,9918.759623,-77222.426198
27519.597667,-1924.535449,5773.606348,-74158.044206
27519.600240,-2812.782580,10214.842000,-73391.948708
27519.602813,4441.235652,12583.501014,-75230.577904
27519.605386,2368.659014,23094.425390,-73085.510509
27519.607959,10362.883188,24130.713709,-75077.358804
27519.610532,-3701.029710,15988.448347,-75690.235202
27519.613105,4293.194464,8734.430116,-73391.948708
27519.615678,-7698.141797,7846.182985,-71706.538613
27519.618251,296.082377,12731.542202,-73698.386908
27519.620824,4293.194464,22946.384202,-76456.330700
27519.623397,10510.924376,6513.812290,-77375.645298
27519.625970,-2368.659014,-7402.059420,-75230.577904
27519.628543,1480.411884,-18061.024985,-76915.987999
27519.631116,-7402.059420,-9030.512492,-75690.235202
27519.633689,14063.912898,-1776.494261,-78141.740796
27519.636262,-592.164754,10214.842000,-74924.139704
27519.638835,8882.471304,4441.235652,-76303.111601
27519.641408,-6365.771101,1924.535449,-73851.606007
27519.643981,7846.182985,4589.276840,-74617.701505
27519.646554,-4145.153275,5033.400406,-76303.111601
27519.649127,9622.677246,0.000000,-78754.617194
27519.651700,-3404.947333,4885.359217,-74924.139704
27519.654273,7402.059420,-3997.112087,-76609.549800
27519.656845,-1332.370696,-6661.853478,-74924.139704
27519.659418,2664.741391,-5033.400406,-74617.701505
27519.661991,6217.729913,-3701.029710,-76456.330700
27519.664564,-444.123565,888.247130,-75537.016103
27519.667137,2220.617826,-1924.535449,-76762.768900
27519.669710,-1924.535449,-2664.741391,-76303.111601
27519.672287,148.041188,-8438.347739,-76762.768900
27519.674864,888.247130,13175.665768,-72932.291410
27519.677442,5329.482782,25759.166782,-74617.701505
27519.680019,2516.700203,33457.308578,-73698.386908
27519.682596,-592.164754,20429.683999,-73085.510509
27519.685173,-740.205942,3701.029710,-74924.139704
27519.687750,1480.411884,444.123565,-74004.825107
27519.690327,5033.400406,11251.130318,-74617.701505
27519.692904,7846.182985,11399.171507,-79827.150892
27519.695481,-3997.112087,4737.318029,-75230.577904
27519.698058,-5921.647536,11251.130318,-71246.881314
27519.700635,11695.253884,9474.636058,-72472.634111
27519.703212,-2220.617826,12879.583391,-75996.673402
27519.705789,11843.295072,26499.372724,-72166.195912
27519.708366,-592.164754,23094.425390,-75690.235202
27519.710943,5921.647536,13323.706956,-75230.577904
27519.713520,-2664.741391,5477.523971,-73698.386908
27519.716097,-2664.741391,7402.059420,-73545.167808
27519.718674,-1036.288319,16728.654289,-75537.016103
27519.721251,7846.182985,24426.796086,-76149.892501
27519.723828,2664.741391,740.205942,-75843.454302
27519.726405,1480.411884,-12139.377449,-75077.358804
27519.728982,-6069.688724,-15248.242405,-76609.549800
27519.731559,7105.977043,-5329.482782,-77222.426198
27519.734136,148.041188,4885.359217,-77069.207099
27519.736713,10066.800811,10214.842000,-76149.892501
27519.739290,3108.864956,8438.347739,-74004.825107
27519.741867,1924.535449,592.164754,-74770.920605
27519.744444,1628.453072,9474.636058,-73238.729609
27519.747021,-1184.329507,296.082377,-76456.330700
27519.749598,6069.688724,3108.864956,-78294.959896
27519.752175,-1332.370696,740.205942,-76762.768900
27519.754752,7994.224174,-7698.141797,-77988.521696
27519.757329,-3108.864956,-7698.141797,-75383.797003
27519.759906,7254.018232,-4737.318029,-74770.920605
27519.762483,1480.411884,-888.247130,-75537.016103
27519.765060,8142.265362,-444.123565,-77069.207099
27519.767638,-6365.771101,740.205942,-75537.016103
27519.770215,444.123565,-11103.089130,-77528.864398
27519.772792,-1480.411884,5773.606348,-71859.757712
27519.775371,6957.935855,17468.860231,-74770.920605
27519.777951,4441.235652,35677.926404,-73238.729609
27519.780530,-3552.988522,24426.796086,-74004.825107
27519.783110,1332.370696,15692.365970,-72012.976812
27519.785690,-2220.617826,-5477.523971,-76456.330700
27519.788269,7846.182985,7846.182985,-72166.195912
27519.790849,-888.247130,8734.430116,-77988.521696
27519.793429,14211.954086,10807.006753,-78601.398095
27519.796008,-9474.636058,9030.512492,-72472.634111
27519.798588,2220.617826,10362.883188,-70634.004916
27519.801167,1332.370696,7550.100608,-76609.549800
27519.803747,1036.288319,19985.560434,-74004.825107
27519.806327,9030.512492,27683.702231,-73545.167808
27519.808906,-6957.935855,18061.024985,-75690.235202
27519.811486,8586.388927,8882.471304,-73851.606007
27519.814066,-12731.542202,5921.647536,-71246.881314
27519.816645,3256.906145,13619.789333,-73851.606007
27519.819225,1924.535449,22798.343014,-76609.549800
27519.821805,13027.624579,9030.512492,-77069.207099
27519.824384,-740.205942,-6661.853478,-75537.016103
27519.826964,-592.164754,-18653.189738,-77069.207099
27519.829543,4293.194464,-7846.182985,-76303.111601
27519.832123,-1332.370696,3404.947333,-76762.768900
27519.834703,11843.295072,13027.624579,-75843.454302
27519.837282,4293.194464,6513.812290,-74617.701505
27519.839862,888.247130,4441.235652,-71400.100414
27519.842442,-3552.988522,-2960.823768,-75077.358804
27519.845021,1628.453072,5625.565159,-75230.577904
27519.847601,296.082377,2812.782580,-78448.178995
27519.850180,8142.265362,3108.864956,-75537.016103
27519.852760,1776.494261,-6217.729913,-77375.645298
27519.855340,740.205942,-9326.594869,-75537.016103
27519.857919,3552.988522,-5477.523971,-74924.139704
27519.860499,888.247130,-2812.782580,-76609.549800
27519.863079,4737.318029,1628.453072,-78294.959896
27519.865658,-3552.988522,-740.205942,-77375.645298
27519.868238,-296.082377,-7402.059420,-76915.987999
27519.870817,4589.276840,3552.988522,-73851.606007
27519.873397,-1184.329507,20133.601622,-74464.482406
27519.875977,9326.594869,34493.596897,-74004.825107
27519.878558,-8438.347739,26943.496289,-74004.825107
27519.881140,9622.677246,13767.830521,-72779.072310
27519.883722,-7402.059420,-5181.441594,-75383.797003
27519.886304,15100.201217,1776.494261,-74004.825107
27519.888885,888.247130,13619.789333,-77835.302597
27519.891467,7254.018232,12435.459826,-77682.083497
27519.894049,-2664.741391,6365.771101,-73085.510509
27519.896631,2664.741391,8290.306550,-72779.072310
27519.899212,-4293.194464,8734.430116,-75690.235202
27519.901794,7994.224174,19985.560434,-75230.577904
27519.904376,2664.741391,30348.443622,-73851.606007
27519.906958,6069.688724,20873.807564,-76149.892501
27519.909539,-1924.535449,9918.759623,-74158.044206
27519.912121,-4293.194464,5625.565159,-71859.757712
27519.914703,1628.453072,15988.448347,-73545.167808
27519.917285,6365.771101,22206.178260,-76149.892501
27519.919866,7550.100608,4441.235652,-77682.083497
27519.922448,-148.041188,-7254.018232,-74311.263306
27519.925030,-2516.700203,-17616.901420,-76609.549800
27519.927611,1776.494261,-7846.182985,-76456.330700
27519.930193,3256.906145,1036.288319,-77375.645298
27519.932775,13027.624579,14508.036463,-75537.016103
27519.935357,740.205942,6365.771101,-75230.577904
27519.937938,4145.153275,3108.864956,-73545.167808
27519.940520,-3256.906145,-2072.576638,-75996.673402
27519.943102,6513.812290,296.082377,-78448.178995
27519.945684,-3701.029710,8882.471304,-75996.673402
27519.948265,9622.677246,1184.329507,-77528.864398
27519.950847,148.041188,-6365.771101,-77528.864398
27519.953429,3552.988522,-7846.182985,-74617.701505
27519.956011,1924.535449,-6661.853478,-75996.673402
27519.958592,3552.988522,-888.247130,-76915.987999
27519.961174,3552.988522,740.205942,-78754.617194
27519.963756,-2812.782580,-2812.782580,-76762.768900
27519.966338,2220.617826,-9918.759623,-76609.549800
27519.968919,-592.164754,11103.089130,-72625.853210
27519.971501,6217.729913,25611.125593,-74311.263306
27519.974083,1480.411884,34789.679274,-73851.606007
27519.976665,-3552.988522,23834.631332,-73545.167808
27519.979246,1332.370696,6217.729913,-72932.291410
27519.981829,-2368.659014,-3552.988522,-74004.825107
27519.984412,9030.512492,9622.677246,-75537.016103
27519.986995,444.123565,12287.418637,-79520.712692
27519.989579,8882.471304,11695.253884,-75996.673402
27519.992162,-2960.823768,5625.565159,-72932.291410
27519.994745,-444.123565,7105.977043,-73391.948708
27519.997328,-1480.411884,6365.771101,-77528.864398
27519.999911,8142.265362,27831.743419,-73391.948708
27520.002494,3997.112087,26203.290347,-76762.768900
27520.005077,-3701.029710,16284.530724,-73698.386908
27520.007660,-2516.700203,5329.482782,-72625.853210
27520.010243,-2812.782580,9918.759623,-70940.443115
27520.012826,1924.535449,20133.601622,-74924.139704
27520.015409,11103.089130,12583.501014,-77682.083497
27520.017992,-4737.318029,0.000000,-76149.892501
27520.020575,5773.606348,-12583.501014,-74924.139704
27520.023158,-9326.594869,-13027.624579,-76303.111601
27520.025741,12879.583391,-3108.864956,-78294.959896
27520.028324,2072.576638,15692.365970,-74311.263306
27520.030908,9918.759623,8290.306550,-77375.645298
27520.033491,-1184.329507,6365.771101,-72932.291410
27520.036074,1776.494261,592.164754,-73391.948708
27520.038657,-592.164754,-2812.782580,-76456.330700
27520.041240,-740.205942,7105.977043,-74311.263306
27520.043823,7846.182985,8882.471304,-73391.948708
27520.046406,5181.441594,-2960.823768,-78448.178995
27520.048989,3997.112087,-6809.894666,-74924.139704
27520.051572,-592.164754,-8290.306550,-75996.673402
27520.054155,3256.906145,-3997.112087,-76609.549800
27520.056738,5773.606348,148.041188,-77069.207099
27520.059321,-2072.576638,296.082377,-77528.864398
27520.061904,1036.288319,-10066.800811,-77375.645298
27520.064487,-148.041188,1036.288319,-74158.044206
27520.067070,5625.565159,18505.148550,-75537.016103
27520.069654,3404.947333,35825.967593,-72779.072310
27520.072237,-4589.276840,27387.619854,-73698.386908
27520.074820,2072.576638,13767.830521,-72779.072310
27520.077403,-740.205942,-4737.318029,-73851.606007
27520.079986,9030.512492,148.041188,-74770.920605
27520.082569,-1480.411884,11547.212695,-78907.836294
27520.085153,8882.471304,6365.771101,-80746.465489
27520.087737,740.205942,7402.059420,-73238.729609
27520.090321,-10510.924376,5329.482782,-71706.538613
27520.092904,8438.347739,6809.894666,-75843.454302
27520.095488,-6513.812290,22206.178260,-74464.482406
27520.098072,17912.983796,28719.990550,-74770.920605
27520.100656,-9770.718434,21910.095883,-75996.673402
27520.103240,5921.647536,9622.677246,-73851.606007
27520.105824,-11843.295072,7105.977043,-71400.100414
27520.108408,4145.153275,14359.995275,-73545.167808
27520.110992,14804.118840,12139.377449,-78754.617194
27520.113576,-7550.100608,740.205942,-76303.111601
27520.116160,8734.430116,-13619.789333,-76303.111601
27520.118744,-14804.118840,-12287.418637,-75537.016103
27520.121328,14508.036463,-8290.306550,-77988.521696
27520.123911,-8142.265362,11991.336260,-75843.454302
27520.126495,18209.066173,14063.912898,-76609.549800
27520.129079,-5181.441594,7550.100608,-75230.577904
27520.131663,7402.059420,-3849.070898,-74004.825107
27520.134247,-2664.741391,2960.823768,-74004.825107
27520.136831,1924.535449,-148.041188,-78907.836294
27520.139415,4441.235652,9474.636058,-75537.016103
27520.141999,2960.823768,-2664.741391,-77222.426198
27520.144583,4293.194464,-4885.359217,-73851.606007
27520.147167,2664.741391,-9770.718434,-74924.139704
27520.149751,-296.082377,-3997.112087,-74464.482406
27520.152335,7698.141797,148.041188,-77682.083497
27520.154918,-1924.535449,-1036.288319,-77835.302597
27520.157502,296.082377,-7994.224174,-76609.549800
27520.160086,1480.411884,3256.906145,-73545.167808
27520.162670,3404.947333,16136.489536,-74617.701505
27520.165254,6513.812290,35085.761651,-73085.510509
27520.167838,-5625.565159,29460.196492,-74158.044206
27520.170422,4441.235652,18653.189738,-72779.072310
27520.173006,-6365.771101,-1924.535449,-72012.976812
27520.175590,12139.377449,-2812.782580,-74617.701505
27520.178174,-2516.700203,10510.924376,-77988.521696
27520.180758,7402.059420,12139.377449,-79367.493593
27520.183341,-6365.771101,11399.171507,-71553.319513
27520.185925,8734.430116,3552.988522,-70634.004916
27520.188506,-5033.400406,6809.894666,-73698.386908
27520.191090,5773.606348,19097.313304,-75383.797003
27520.193673,2072.576638,29016.072926,-75843.454302
27520.196257,2664.741391,19689.478057,-75537.016103
27520.198840,-3108.864956,8142.265362,-73851.606007
27520.201424,-7846.182985,6217.729913,-71246.881314
27520.204008,3997.112087,19985.560434,-70940.443115
27520.206591,6809.894666,11399.171507,-77682.083497
27520.209175,740.205942,296.082377,-77375.645298
27520.211759,1480.411884,-12435.459826,-75537.016103
27520.214342,-3849.070898,-11843.295072,-76609.549800
27520.216926,7698.141797,-5773.606348,-78294.959896
27520.219510,148.041188,13915.871710,-75996.673402
27520.222093,5625.565159,12287.418637,-75537.016103
27520.224677,-592.164754,7550.100608,-72779.072310
27520.227261,5033.400406,1036.288319,-73545.167808
27520.229844,-5921.647536,1036.288319,-75690.235202
27520.232428,1924.535449,3108.864956,-76456.330700
27520.235011,9030.512492,6365.771101,-75537.016103
27520.237595,3404.947333,-2368.659014,-77069.207099
27520.240179,4885.359217,-6957.935855,-74004.825107
27520.242762,2072.576638,-8142.265362,-73698.386908
27520.245346,-2072.576638,-3404.947333,-76149.892501
27520.247930,7254.018232,-592.164754,-77835.302597
27520.250513,-1036.288319,-888.247130,-78141.740796
27520.253097,1332.370696,-8438.347739,-76456.330700
27520.255681,1332.370696,11843.295072,-73391.948708
27520.258264,5477.523971,23390.507767,-74770.920605
27520.260848,3108.864956,32717.102636,-74464.482406
27520.263432,-2812.782580,27535.661042,-72625.853210
27520.266015,3552.988522,2368.659014,-75690.235202
27520.268599,-3256.906145,-1776.494261,-72932.291410
27520.271182,9918.759623,888.247130,-76303.111601
27520.273766,-444.123565,11991.336260,-79367.493593
27520.276350,7105.977043,13471.748144,-75843.454302
27520.278933,-5625.565159,6661.853478,-71553.319513
27520.281517,3701.029710,2368.659014,-74158.044206
27520.284101,-592.164754,9622.677246,-76149.892501
27520.286684,9918.759623,26647.413912,-74464.482406
27520.289268,1776.494261,25167.002028,-76762.768900
27520.291851,444.123565,14804.118840,-75383.797003
27520.294435,-6217.729913,7698.141797,-72932.291410
27520.297018,592.164754,10510.924376,-72625.853210
27520.299602,7402.059420,18653.189738,-74924.139704
27520.302185,2812.782580,1036.288319,-77375.645298
27520.304768,3256.906145,-4589.276840,-75843.454302
27520.307352,-2960.823768,-16876.695478,-75537.016103
27520.309935,-2516.700203,-10510.924376,-75843.454302
27520.312519,4145.153275,296.082377,-76609.549800
27520.315102,3552.988522,17320.819043,-76149.892501
27520.317685,7402.059420,10362.883188,-72932.291410
27520.320269,-888.247130,5773.606348,-71859.757712
27520.322852,2220.617826,-1332.370696,-75383.797003
27520.325436,-4589.276840,5329.482782,-74311.263306
27520.328019,8142.265362,6661.853478,-76303.111601
27520.330602,2072.576638,5477.523971,-76609.549800
27520.333186,4589.276840,-6661.853478,-77222.426198
27520.335769,1628.453072,-6365.771101,-73851.606007
27520.338353,3849.070898,-6217.729913,-76149.892501
27520.340936,7550.100608,-1332.370696,-77222.426198
27520.343519,-5329.482782,296.082377,-78448.178995
27520.346103,4737.318029,-5773.606348,-77069.207099
27520.348686,0.000000,2664.741391,-74158.044206
27520.351270,7105.977043,15396.283594,-73851.606007
27520.353853,3404.947333,33605.349767,-73085.510509
27520.356437,-6217.729913,27535.661042,-72932.291410
27520.359020,6957.935855,12731.542202,-73085.510509
27520.361603,-3997.112087,-3404.947333,-73545.167808
27520.364187,10807.006753,1184.329507,-73085.510509
27520.366770,6661.853478,13471.748144,-77222.426198
27520.369354,-5181.441594,10066.800811,-78907.836294
27520.371937,5921.647536,9918.759623,-72625.853210
27520.374520,-6513.812290,-1480.411884,-73698.386908
27520.377104,9474.636058,8142.265362,-74158.044206
27520.379687,888.247130,23686.590144,-75077.358804
27520.382271,8142.265362,27535.661042,-76149.892501
27520.384854,1332.370696,17468.860231,-74770.920605
27520.387437,-10066.800811,10066.800811,-72932.291410
27520.390021,-592.164754,6217.729913,-71400.100414
27520.392604,-1628.453072,19393.395680,-73545.167808
27520.395188,12139.377449,2072.576638,-78141.740796
27520.397771,-4441.235652,-4737.318029,-76303.111601
27520.400354,1332.370696,-17024.736666,-77222.426198
27520.402938,-7550.100608,-10362.883188,-75537.016103
27520.405521,9178.553681,-1776.494261,-77988.521696
27520.408105,2664.741391,16580.613101,-74311.263306
27520.410688,4293.194464,9918.759623,-74924.139704
27520.413272,444.123565,1036.288319,-74464.482406
27520.415855,-444.123565,2960.823768,-74464.482406
27520.418438,1036.288319,0.000000,-77835.302597
27520.421022,2516.700203,13915.871710,-74464.482406
27520.423605,2960.823768,-444.123565,-77069.207099
27520.426189,3552.988522,-1628.453072,-75843.454302
27520.428772,6217.729913,-11695.253884,-74924.139704
27520.431355,-3997.112087,-5033.400406,-74464.482406
27520.433939,13323.706956,148.041188,-77222.426198
